flex_1,flex_2,flex_3,flex_4,flex_5,Qw,Qx,Qy,Qz,GYRx,GYRy,GYRz,ACCx,ACCy,ACCz,ACCx_real,ACCy_real,ACCz_real,ACCx_world,ACCy_world,ACCz_world,GRAx,GRAy,GRAz,ACCx_raw,ACCy_raw,ACCz_raw,GYRx_raw,GYRy_raw,GYRz_raw
2887.0,2800.0,2885.0,3103.0,3023.0,1.0,0.0,0.0,0.0,0.0,0.0,0.0,0.0,0.0,0.0,0.0,0.0,0.0,0.0,0.0,0.0,0.0,0.0,0.0,0.0,0.0,0.0,0.0,0.0,0.0
2895.0,2803.0,2874.0,3120.0,3029.0,0.962219,0.065247,-0.264038,0.010803,-1.0,-2.0,-3.0,4839.0,1262.0,5971.0,664.0,280.0,-1008.0,1066.0,400.0,-486.0,0.509535,0.119858,0.852009,9780.0,2574.0,12032.0,-2.0,-27.0,-49.0
2896.0,2801.0,2878.0,3131.0,3024.0,0.961853,0.065918,-0.265137,0.010315,1.0,-1.0,-3.0,4863.0,1274.0,6006.0,673.0,280.0,-962.0,1052.0,394.0,-440.0,0.511405,0.121337,0.850625,9786.0,2672.0,12150.0,26.0,-10.0,-46.0
2907.0,2791.0,2877.0,3133.0,3030.0,0.961731,0.066406,-0.265625,0.010132,1.0,0.0,-3.0,4872.0,1308.0,6033.0,675.0,305.0,-930.0,1036.0,415.0,-407.0,0.512265,0.122347,0.850063,9780.0,2820.0,12234.0,40.0,3.0,-48.0
2883.0,2803.0,2883.0,3120.0,3030.0,0.961426,0.067261,-0.266418,0.009644,0.0,0.0,-2.0,4892.0,1389.0,6080.0,684.0,371.0,-874.0,1013.0,473.0,-344.0,0.51358,0.124194,0.84893,9804.0,2972.0,12250.0,18.0,13.0,-40.0
2927.0,2800.0,2879.0,3115.0,3027.0,0.961304,0.067627,-0.266785,0.00946,0.0,0.0,-2.0,4900.0,1417.0,6102.0,687.0,393.0,-848.0,1001.0,491.0,-317.0,0.514202,0.124972,0.848447,9856.0,2958.0,12318.0,1.0,17.0,-34.0
2897.0,2803.0,2877.0,3134.0,3029.0,0.961121,0.068054,-0.267456,0.009155,-1.0,0.0,-1.0,4889.0,1414.0,6139.0,667.0,382.0,-805.0,963.0,475.0,-290.0,0.515361,0.125919,0.847673,9676.0,2718.0,12338.0,-6.0,20.0,-11.0
2896.0,2805.0,2878.0,3139.0,3035.0,0.960999,0.068298,-0.267761,0.009155,0.0,0.0,0.0,4875.0,1395.0,6149.0,648.0,359.0,-791.0,941.0,450.0,-290.0,0.515887,0.126366,0.847241,9660.0,2688.0,12380.0,12.0,12.0,0.0
2895.0,2806.0,2877.0,3119.0,3025.0,0.960693,0.06897,-0.268616,0.009277,1.0,-1.0,0.0,4859.0,1381.0,6170.0,620.0,336.0,-761.0,903.0,425.0,-280.0,0.517394,0.127533,0.846107,9724.0,2738.0,12378.0,42.0,-11.0,11.0
2895.0,2802.0,2879.0,3123.0,3027.0,0.96051,0.069336,-0.269104,0.009399,2.0,-1.0,0.0,4859.0,1385.0,6185.0,613.0,335.0,-740.0,887.0,422.0,-265.0,0.518258,0.128137,0.845444,9732.0,2834.0,12450.0,47.0,-17.0,16.0
2897.0,2799.0,2881.0,3133.0,3031.0,0.960205,0.070129,-0.270142,0.009644,1.0,-2.0,0.0,4864.0,1417.0,6198.0,603.0,356.0,-717.0,865.0,441.0,-245.0,0.520135,0.129467,0.844192,9770.0,2900.0,12414.0,29.0,-29.0,20.0
2899.0,2803.0,2883.0,3143.0,3025.0,0.960022,0.070374,-0.270752,0.009705,0.0,-2.0,0.0,4868.0,1412.0,6195.0,598.0,348.0,-714.0,860.0,433.0,-245.0,0.521222,0.129865,0.843477,9770.0,2750.0,12336.0,16.0,-34.0,19.0
2889.0,2806.0,2877.0,3119.0,3019.0,0.959656,0.070801,-0.271912,0.009949,0.0,-2.0,1.0,4866.0,1355.0,6170.0,579.0,286.0,-728.0,855.0,374.0,-272.0,0.523292,0.130478,0.84209,9670.0,2514.0,12230.0,18.0,-34.0,23.0
2891.0,2801.0,2870.0,3167.0,3027.0,0.959473,0.070984,-0.272461,0.010071,0.0,-2.0,1.0,4861.0,1335.0,6155.0,566.0,264.0,-737.0,850.0,354.0,-288.0,0.524267,0.130726,0.841416,9704.0,2602.0,12230.0,22.0,-36.0,25.0
2899.0,2807.0,2883.0,3127.0,3039.0,0.959106,0.071411,-0.273621,0.010254,0.0,-2.0,0.0,4842.0,1329.0,6126.0,530.0,252.0,-755.0,830.0,346.0,-322.0,0.526327,0.13137,0.840023,9634.0,2608.0,12182.0,6.0,-36.0,16.0
2879.0,2799.0,2883.0,3139.0,3037.0,0.958923,0.071533,-0.274231,0.010254,-1.0,-2.0,0.0,4834.0,1326.0,6108.0,513.0,248.0,-767.0,823.0,344.0,-340.0,0.5274,0.131566,0.839319,9614.0,2630.0,12104.0,-1.0,-34.0,14.0
2911.0,2787.0,2893.0,3131.0,3037.0,0.958618,0.071838,-0.275269,0.010376,0.0,-2.0,0.0,4830.0,1287.0,6079.0,494.0,205.0,-786.0,820.0,305.0,-370.0,0.529246,0.132019,0.838123,9692.0,2446.0,12080.0,22.0,-28.0,7.0
2901.0,2806.0,2866.0,3125.0,3031.0,0.958435,0.072144,-0.275818,0.010437,1.0,-2.0,0.0,4836.0,1277.0,6069.0,492.0,191.0,-791.0,822.0,293.0,-376.0,0.530213,0.132532,0.837427,9738.0,2506.0,12108.0,41.0,-25.0,4.0
2902.0,2801.0,2881.0,3121.0,3023.0,0.958069,0.072876,-0.276733,0.010559,1.0,-1.0,0.0,4855.0,1342.0,6105.0,498.0,245.0,-744.0,800.0,340.0,-324.0,0.531798,0.133796,0.836115,9776.0,2940.0,12362.0,30.0,-12.0,6.0
2895.0,2803.0,2887.0,3126.0,3031.0,0.957947,0.07312,-0.277161,0.010559,0.0,-1.0,0.0,4863.0,1370.0,6128.0,500.0,270.0,-717.0,786.0,361.0,-296.0,0.532554,0.134237,0.835609,9772.0,2870.0,12358.0,3.0,-12.0,8.0
2895.0,2805.0,2879.0,3135.0,3011.0,0.957703,0.073364,-0.278015,0.01062,0.0,-1.0,0.0,4846.0,1352.0,6133.0,470.0,249.0,-704.0,755.0,339.0,-303.0,0.53407,0.134617,0.834632,9618.0,2570.0,12196.0,7.0,-21.0,11.0
2897.0,2803.0,2864.0,3121.0,3035.0,0.95752,0.073608,-0.278503,0.010681,1.0,-2.0,0.0,4851.0,1333.0,6143.0,468.0,226.0,-688.0,747.0,314.0,-292.0,0.534917,0.135013,0.833975,9752.0,2592.0,12386.0,37.0,-32.0,12.0
2901.0,2815.0,2871.0,3119.0,3031.0,0.957092,0.074585,-0.279724,0.010925,3.0,-4.0,0.0,4796.0,1356.0,6154.0,396.0,236.0,-664.0,673.0,323.0,-307.0,0.537073,0.136657,0.832337,9288.0,2798.0,12332.0,81.0,-80.0,12.0
2902.0,2800.0,2874.0,3127.0,3039.0,0.956787,0.075195,-0.280579,0.011108,4.0,-6.0,0.0,4771.0,1360.0,6177.0,358.0,232.0,-632.0,625.0,316.0,-300.0,0.538579,0.137658,0.831186,9472.0,2742.0,12554.0,99.0,-132.0,19.0
2903.0,2814.0,2887.0,3123.0,3019.0,0.955933,0.076904,-0.28302,0.011536,7.0,-10.0,0.0,4840.0,1390.0,6244.0,392.0,239.0,-538.0,603.0,310.0,-199.0,0.54287,0.140501,0.827926,10226.0,2996.0,12838.0,171.0,-213.0,19.0
2901.0,2807.0,2866.0,3142.0,3042.0,0.955444,0.078064,-0.284424,0.01178,8.0,-9.0,0.0,4988.0,1433.0,6350.0,520.0,265.0,-416.0,643.0,315.0,-22.0,0.545341,0.142471,0.826022,10934.0,3080.0,13364.0,204.0,-196.0,10.0
2899.0,2807.0,2862.0,3120.0,3038.0,0.95459,0.080933,-0.286438,0.012451,12.0,-3.0,0.0,5195.0,1473.0,6429.0,698.0,265.0,-311.0,734.0,295.0,166.0,0.548877,0.147382,0.8228,10518.0,3102.0,12704.0,289.0,-66.0,8.0
2897.0,2806.0,2875.0,3121.0,3039.0,0.954224,0.082764,-0.286987,0.012939,14.0,-2.0,0.0,5201.0,1544.0,6415.0,696.0,310.0,-314.0,729.0,341.0,171.0,0.549842,0.150523,0.821499,10520.0,3620.0,12878.0,326.0,-42.0,3.0
2903.0,2813.0,2881.0,3155.0,3038.0,0.953613,0.086792,-0.287903,0.013855,16.0,-2.0,0.0,4979.0,1603.0,6277.0,461.0,312.0,-433.0,597.0,371.0,-51.0,0.551501,0.157554,0.819149,8256.0,3278.0,11680.0,368.0,-45.0,13.0
2899.0,2805.0,2891.0,3135.0,3039.0,0.953125,0.088867,-0.288696,0.014404,15.0,-10.0,0.0,4608.0,1646.0,6121.0,78.0,326.0,-575.0,354.0,421.0,-374.0,0.552887,0.161086,0.817412,7018.0,3660.0,11466.0,366.0,-216.0,21.0
2903.0,2807.0,2910.0,3135.0,3055.0,0.95105,0.093323,-0.294128,0.014587,17.0,-37.0,-2.0,4062.0,1654.0,6078.0,-543.0,270.0,-553.0,-163.0,382.0,-707.0,0.562184,0.168928,0.809488,7030.0,2940.0,12336.0,395.0,-843.0,-41.0
2918.0,2817.0,2910.0,3147.0,3025.0,0.949219,0.095886,-0.299194,0.014587,21.0,-49.0,-1.0,4130.0,1556.0,6175.0,-545.0,136.0,-399.0,-233.0,225.0,-607.0,0.570799,0.173305,0.802518,9024.0,2480.0,13038.0,500.0,-1112.0,-20.0
2902.0,2819.0,2911.0,3154.0,3035.0,0.944458,0.103333,-0.311462,0.016113,40.0,-50.0,1.0,4990.0,1452.0,6476.0,143.0,-64.0,48.0,93.0,-77.0,110.0,0.591656,0.185149,0.784574,12852.0,3086.0,13802.0,919.0,-1130.0,34.0
2909.0,2815.0,2911.0,3151.0,3035.0,0.942017,0.108704,-0.316895,0.017517,48.0,-43.0,0.0,5302.0,1562.0,6519.0,379.0,-24.0,166.0,206.0,-72.0,351.0,0.600848,0.193699,0.775463,12208.0,3954.0,13256.0,1108.0,-967.0,22.0
2923.0,2833.0,2890.0,3154.0,3043.0,0.937256,0.120789,-0.326233,0.021057,51.0,-40.0,6.0,5454.0,1967.0,6434.0,402.0,224.0,225.0,153.0,147.0,466.0,0.616614,0.212681,0.757874,11012.0,5436.0,12550.0,1172.0,-901.0,154.0
2909.0,2831.0,2910.0,3151.0,3047.0,0.934814,0.126404,-0.330994,0.023499,46.0,-41.0,12.0,5491.0,2274.0,6395.0,372.0,465.0,260.0,71.0,369.0,529.0,0.624776,0.220772,0.748896,11130.0,6432.0,12576.0,1064.0,-931.0,287.0
2915.0,2829.0,2894.0,3158.0,3039.0,0.92981,0.135071,-0.341125,0.028748,33.0,-44.0,19.0,5600.0,2662.0,6188.0,339.0,765.0,201.0,22.0,668.0,541.0,0.642129,0.231567,0.730761,11668.0,5812.0,11544.0,757.0,-991.0,438.0
2911.0,2839.0,2915.0,3159.0,3039.0,0.927246,0.138123,-0.346558,0.031555,29.0,-44.0,21.0,5837.0,2610.0,6124.0,500.0,690.0,212.0,138.0,584.0,640.0,0.651405,0.234276,0.721601,13372.0,4574.0,12000.0,677.0,-991.0,503.0
2925.0,2835.0,2933.0,3155.0,3027.0,0.922302,0.143616,-0.356445,0.039734,38.0,-32.0,31.0,6292.0,2283.0,6071.0,812.0,344.0,299.0,349.0,217.0,835.0,0.668913,0.236588,0.704542,12984.0,3860.0,11810.0,885.0,-727.0,721.0
2925.0,2835.0,2915.0,3155.0,3055.0,0.920166,0.147095,-0.360046,0.044861,42.0,-26.0,34.0,6099.0,2282.0,5977.0,562.0,329.0,263.0,181.0,220.0,641.0,0.675802,0.238399,0.697448,10764.0,4560.0,11086.0,977.0,-589.0,779.0
2918.0,2835.0,2915.0,3150.0,3063.0,0.915833,0.152954,-0.367188,0.054932,35.0,-32.0,37.0,5758.0,2228.0,5908.0,110.0,263.0,308.0,-178.0,149.0,349.0,0.689369,0.23982,0.683545,10800.0,3672.0,12038.0,804.0,-713.0,861.0
2929.0,2841.0,2915.0,3151.0,3051.0,0.913574,0.155151,-0.370911,0.060547,34.0,-31.0,42.0,5450.0,2174.0,5904.0,-255.0,219.0,360.0,-469.0,89.0,118.0,0.696497,0.23857,0.676637,8710.0,3924.0,11488.0,791.0,-700.0,970.0
2916.0,2832.0,2918.0,3147.0,3051.0,0.908203,0.158386,-0.380859,0.070374,17.0,-49.0,38.0,5426.0,2260.0,5207.0,-423.0,342.0,-196.0,-249.0,385.0,-351.0,0.714088,0.234089,0.659645,13920.0,4202.0,11070.0,408.0,-1117.0,890.0
2927.0,2834.0,2895.0,3103.0,3071.0,0.90564,0.15863,-0.386108,0.074097,11.0,-37.0,34.0,5738.0,2233.0,4922.0,-183.0,347.0,-414.0,64.0,466.0,-322.0,0.722858,0.230105,0.65143,13078.0,4172.0,7294.0,255.0,-833.0,783.0
2929.0,2835.0,2911.0,3167.0,3058.0,0.901611,0.15863,-0.394226,0.080505,10.0,-17.0,25.0,6418.0,2000.0,4652.0,385.0,176.0,-581.0,610.0,375.0,-48.0,0.736419,0.222571,0.638806,14088.0,3104.0,8534.0,242.0,-380.0,591.0
2929.0,2826.0,2905.0,3157.0,3056.0,0.900391,0.159058,-0.396179,0.083557,13.0,-9.0,21.0,6352.0,1838.0,4371.0,289.0,33.0,-834.0,757.0,332.0,-308.0,0.740013,0.220221,0.635428,11966.0,2742.0,6984.0,318.0,-194.0,496.0
2928.0,2833.0,2899.0,3157.0,3051.0,0.897888,0.160706,-0.400024,0.08905,14.0,-12.0,20.0,6143.0,1709.0,4096.0,23.0,-71.0,-1050.0,759.0,312.0,-657.0,0.746976,0.217347,0.628287,11522.0,3226.0,7828.0,329.0,-272.0,464.0
2931.0,2827.0,2921.0,3143.0,3057.0,0.896545,0.161438,-0.402039,0.091797,13.0,-16.0,22.0,5782.0,1684.0,3881.0,-366.0,-82.0,-1235.0,636.0,359.0,-1063.0,0.750531,0.215661,0.624523,9346.0,3268.0,6402.0,298.0,-366.0,508.0
2931.0,2832.0,2911.0,3151.0,3071.0,0.892822,0.16217,-0.408752,0.09729,10.0,-24.0,25.0,5924.0,1600.0,3744.0,-313.0,-120.0,-1279.0,727.0,347.0,-1047.0,0.761442,0.210044,0.613219,12842.0,3170.0,6608.0,249.0,-545.0,579.0
2939.0,2835.0,2895.0,3139.0,3067.0,0.89093,0.162476,-0.412109,0.099915,9.0,-22.0,22.0,6261.0,1592.0,3706.0,-20.0,-105.0,-1270.0,911.0,374.0,-808.0,0.766789,0.207157,0.607507,15168.0,3094.0,7608.0,217.0,-483.0,514.0
2933.0,2837.0,2923.0,3163.0,3059.0,0.888733,0.162781,-0.415588,0.104309,7.0,1.0,13.0,6692.0,1474.0,3540.0,362.0,-186.0,-1387.0,1266.0,367.0,-592.0,0.772653,0.202638,0.601515,12954.0,2680.0,6552.0,172.0,31.0,309.0
2927.0,2833.0,2926.0,3159.0,3055.0,0.888367,0.163147,-0.415894,0.105835,7.0,2.0,8.0,6521.0,1364.0,3448.0,184.0,-289.0,-1473.0,1247.0,299.0,-801.0,0.773465,0.201837,0.600812,11940.0,1794.0,6246.0,181.0,64.0,190.0
2928.0,2835.0,2918.0,3153.0,3047.0,0.886902,0.16449,-0.417725,0.108887,12.0,-14.0,10.0,5751.0,1174.0,3309.0,-612.0,-470.0,-1580.0,885.0,137.0,-1512.0,0.776783,0.200803,0.596901,9526.0,2556.0,6814.0,275.0,-302.0,233.0
2929.0,2838.0,2923.0,3167.0,3059.0,0.885437,0.165649,-0.419983,0.109985,11.0,-21.0,7.0,5768.0,1193.0,3375.0,-623.0,-453.0,-1476.0,807.0,117.0,-1451.0,0.780175,0.20096,0.59227,12204.0,2344.0,7082.0,272.0,-478.0,169.0
2935.0,2829.0,2901.0,3165.0,3056.0,0.882446,0.168213,-0.424927,0.111084,11.0,-16.0,-1.0,6469.0,1087.0,3470.0,19.0,-571.0,-1299.0,1130.0,-15.0,-856.0,0.787322,0.202473,0.582193,15974.0,1838.0,7458.0,270.0,-354.0,-11.0
2931.0,2829.0,2897.0,3139.0,3049.0,0.881531,0.169678,-0.426208,0.111572,13.0,-4.0,-3.0,6780.0,1083.0,3490.0,314.0,-588.0,-1253.0,1286.0,-29.0,-597.0,0.789294,0.204046,0.579101,14858.0,2344.0,7018.0,309.0,-75.0,-68.0
2927.0,2845.0,2911.0,3167.0,3051.0,0.880737,0.172668,-0.426514,0.111877,9.0,0.0,-6.0,6669.0,1265.0,3512.0,197.0,-444.0,-1210.0,1135.0,86.0,-634.0,0.789928,0.208717,0.576486,12796.0,3022.0,7168.0,214.0,9.0,-126.0
2923.0,2831.0,2887.0,3163.0,3071.0,0.880371,0.173767,-0.426819,0.111877,7.0,-1.0,-3.0,6564.0,1299.0,3552.0,89.0,-425.0,-1160.0,1027.0,81.0,-686.0,0.790399,0.210456,0.5752,12098.0,2898.0,7162.0,178.0,-15.0,-66.0
2930.0,2831.0,2903.0,3143.0,3059.0,0.879272,0.175171,-0.428406,0.112305,3.0,-8.0,1.0,6455.0,1481.0,3616.0,-38.0,-254.0,-1065.0,825.0,196.0,-692.0,0.792716,0.211822,0.571516,13150.0,3066.0,7346.0,75.0,-170.0,39.0
2919.0,2832.0,2879.0,3179.0,3051.0,0.878601,0.175598,-0.429565,0.112427,3.0,-8.0,0.0,6468.0,1475.0,3607.0,-39.0,-261.0,-1056.0,822.0,187.0,-687.0,0.794317,0.211972,0.569218,12920.0,2902.0,7058.0,78.0,-165.0,5.0
2931.0,2847.0,2896.0,3155.0,3071.0,0.877319,0.177246,-0.431641,0.111877,6.0,-8.0,-7.0,6634.0,1433.0,3661.0,104.0,-323.0,-963.0,866.0,102.0,-529.0,0.797033,0.214421,0.564476,14694.0,2872.0,7698.0,145.0,-167.0,-152.0
2935.0,2832.0,2933.0,3155.0,3056.0,0.876953,0.178589,-0.432007,0.111206,7.0,0.0,-12.0,6817.0,1405.0,3668.0,284.0,-373.0,-943.0,978.0,57.0,-385.0,0.79742,0.217145,0.56289,14114.0,2628.0,7216.0,175.0,16.0,-272.0
2927.0,2835.0,2899.0,3151.0,3071.0,0.877014,0.181763,-0.43103,0.109436,10.0,7.0,-14.0,6797.0,1357.0,3663.0,277.0,-481.0,-943.0,1010.0,-38.0,-417.0,0.795822,0.224476,0.562305,12764.0,2996.0,7250.0,245.0,166.0,-319.0
2931.0,2839.0,2913.0,3159.0,3055.0,0.877075,0.183411,-0.430359,0.109009,9.0,4.0,-9.0,6649.0,1538.0,3683.0,137.0,-328.0,-923.0,857.0,89.0,-484.0,0.794901,0.227904,0.562295,12862.0,4292.0,7558.0,210.0,95.0,-206.0
2929.0,2833.0,2909.0,3155.0,3057.0,0.877075,0.184692,-0.429688,0.109375,3.0,6.0,4.0,6720.0,1721.0,3740.0,214.0,-163.0,-867.0,805.0,221.0,-355.0,0.794138,0.229984,0.562481,13008.0,3992.0,7490.0,70.0,156.0,100.0
2925.0,2835.0,2866.0,3155.0,3051.0,0.877075,0.18457,-0.429443,0.110352,0.0,5.0,8.0,6582.0,1820.0,3734.0,77.0,-55.0,-877.0,691.0,319.0,-445.0,0.794043,0.228985,0.562951,12304.0,4126.0,7484.0,19.0,129.0,189.0
2933.0,2837.0,2911.0,3165.0,3061.0,0.877136,0.18396,-0.429138,0.112305,0.0,8.0,6.0,6642.0,1886.0,3769.0,136.0,31.0,-851.0,676.0,390.0,-364.0,0.794144,0.226327,0.56398,12914.0,3844.0,7344.0,20.0,194.0,144.0
2934.0,2836.0,2903.0,3151.0,3058.0,0.877319,0.183899,-0.42865,0.112915,1.0,6.0,3.0,6452.0,1846.0,3728.0,-49.0,-4.0,-899.0,610.0,371.0,-547.0,0.793656,0.225874,0.564879,11806.0,3332.0,7290.0,27.0,145.0,78.0
2933.0,2832.0,2903.0,3151.0,3059.0,0.877197,0.184387,-0.428528,0.113464,2.0,4.0,-2.0,6568.0,1761.0,3695.0,66.0,-92.0,-931.0,733.0,311.0,-494.0,0.79365,0.226243,0.564714,13750.0,3348.0,7148.0,65.0,101.0,-43.0
2927.0,2834.0,2911.0,3171.0,3055.0,0.877319,0.184937,-0.428101,0.11322,2.0,7.0,-7.0,6591.0,1695.0,3645.0,94.0,-169.0,-983.0,814.0,264.0,-519.0,0.793039,0.227557,0.565036,13002.0,2882.0,6878.0,68.0,174.0,-141.0
2933.0,2834.0,2914.0,3153.0,3059.0,0.877563,0.185913,-0.427246,0.112976,3.0,5.0,-3.0,6517.0,1563.0,3631.0,29.0,-319.0,-1003.0,841.0,136.0,-617.0,0.791879,0.229764,0.565778,13074.0,3318.0,7326.0,90.0,123.0,-59.0
2929.0,2831.0,2903.0,3151.0,3055.0,0.877625,0.186218,-0.42688,0.113098,1.0,5.0,-1.0,6421.0,1658.0,3622.0,-62.0,-228.0,-1015.0,761.0,220.0,-676.0,0.791402,0.230301,0.566112,12096.0,3874.0,7132.0,32.0,117.0,-17.0
2928.0,2837.0,2899.0,3151.0,3055.0,0.877625,0.185425,-0.427368,0.112915,-8.0,-1.0,2.0,6353.0,1700.0,3620.0,-135.0,-175.0,-1016.0,699.0,264.0,-721.0,0.792012,0.228954,0.565949,12970.0,3444.0,7248.0,-162.0,-20.0,55.0
2939.0,2835.0,2913.0,3159.0,3059.0,0.877563,0.184509,-0.427917,0.11261,-9.0,0.0,0.0,6463.0,1650.0,3624.0,-30.0,-213.0,-1009.0,773.0,229.0,-642.0,0.792605,0.227462,0.565642,13582.0,2804.0,7228.0,-203.0,3.0,6.0
2925.0,2832.0,2911.0,3155.0,3063.0,0.877686,0.182983,-0.42865,0.111572,-6.0,-3.0,-3.0,6297.0,1395.0,3588.0,-201.0,-452.0,-1045.0,780.0,17.0,-852.0,0.793271,0.225553,0.565557,12064.0,2298.0,7278.0,-125.0,-48.0,-65.0
2926.0,2831.0,2903.0,3163.0,3067.0,0.877441,0.182617,-0.429382,0.111023,-4.0,-5.0,-4.0,6305.0,1366.0,3609.0,-199.0,-478.0,-1015.0,771.0,-19.0,-838.0,0.794065,0.225129,0.564511,12626.0,2672.0,7274.0,-82.0,-104.0,-72.0
2928.0,2827.0,2917.0,3153.0,3057.0,0.876465,0.182373,-0.431885,0.10968,-5.0,-15.0,-3.0,6115.0,1425.0,3595.0,-414.0,-417.0,-996.0,610.0,19.0,-981.0,0.797069,0.224949,0.560436,12126.0,3138.0,7246.0,-102.0,-339.0,-48.0
2935.0,2832.0,2899.0,3159.0,3067.0,0.875488,0.182129,-0.434082,0.108948,-6.0,-19.0,-1.0,6299.0,1480.0,3613.0,-252.0,-357.0,-947.0,655.0,58.0,-808.0,0.799753,0.224319,0.556751,14002.0,3270.0,7366.0,-134.0,-414.0,-14.0
2929.0,2842.0,2923.0,3167.0,3062.0,0.873657,0.180542,-0.43866,0.108154,-11.0,-15.0,6.0,6600.0,1643.0,3529.0,1.0,-163.0,-976.0,767.0,251.0,-571.0,0.805529,0.220578,0.549957,13652.0,3994.0,6658.0,-238.0,-332.0,145.0
2929.0,2839.0,2927.0,3155.0,3050.0,0.872742,0.179199,-0.44104,0.107788,-15.0,-16.0,6.0,6634.0,1709.0,3392.0,11.0,-74.0,-1086.0,826.0,375.0,-600.0,0.808459,0.217712,0.546668,13464.0,3612.0,5772.0,-334.0,-358.0,157.0
2928.0,2832.0,2915.0,3147.0,3051.0,0.870728,0.176086,-0.446777,0.105408,-19.0,-23.0,-4.0,6493.0,1630.0,3062.0,-184.0,-110.0,-1350.0,931.0,435.0,-900.0,0.815164,0.212459,0.538661,11962.0,3180.0,5328.0,-424.0,-526.0,-71.0
2933.0,2835.0,2903.0,3163.0,3061.0,0.869507,0.17511,-0.450256,0.102539,-21.0,-31.0,-14.0,6307.0,1621.0,3024.0,-401.0,-117.0,-1343.0,812.0,417.0,-1069.0,0.818913,0.212181,0.533162,11570.0,3078.0,5984.0,-472.0,-707.0,-298.0
2935.0,2834.0,2915.0,3155.0,3063.0,0.866577,0.173462,-0.458374,0.093628,-26.0,-40.0,-26.0,6306.0,1552.0,3207.0,-468.0,-207.0,-1048.0,601.0,212.0,-975.0,0.826915,0.214803,0.519526,13502.0,3372.0,7668.0,-590.0,-905.0,-579.0
2919.0,2835.0,2927.0,3152.0,3053.0,0.865479,0.172119,-0.461975,0.08844,-32.0,-32.0,-27.0,6643.0,1667.0,3498.0,-157.0,-104.0,-711.0,491.0,174.0,-518.0,0.830103,0.216217,0.513829,15516.0,4128.0,8794.0,-731.0,-728.0,-606.0
2907.0,2830.0,2893.0,3152.0,3047.0,0.866028,0.16626,-0.464905,0.078735,-45.0,-1.0,-17.0,7264.0,1782.0,4009.0,452.0,22.0,-188.0,391.0,80.0,284.0,0.831422,0.214762,0.512425,15358.0,3320.0,8678.0,-1021.0,-11.0,-379.0
2915.0,2826.0,2901.0,3151.0,3056.0,0.867371,0.162231,-0.464355,0.075256,-42.0,10.0,-10.0,7104.0,1760.0,3876.0,305.0,27.0,-351.0,436.0,142.0,77.0,0.829954,0.211538,0.51605,12816.0,3534.0,6832.0,-958.0,237.0,-226.0
2906.0,2819.0,2894.0,3142.0,3039.0,0.870117,0.154907,-0.462402,0.070923,-35.0,15.0,1.0,6610.0,1854.0,3692.0,-162.0,182.0,-603.0,332.0,376.0,-412.0,0.826661,0.203985,0.524322,11898.0,4634.0,7516.0,-796.0,344.0,33.0
2901.0,2815.0,2897.0,3134.0,3030.0,0.871826,0.15033,-0.460999,0.069214,-46.0,16.0,7.0,6400.0,2084.0,3819.0,-355.0,459.0,-520.0,87.0,609.0,-477.0,0.824631,0.198308,0.529753,11932.0,5574.0,8546.0,-1051.0,379.0,161.0
2903.0,2802.0,2886.0,3135.0,3022.0,0.87616,0.136902,-0.457458,0.065491,-63.0,26.0,13.0,6682.0,1866.0,3920.0,-31.0,391.0,-535.0,307.0,533.0,-246.0,0.819545,0.179977,0.543934,14770.0,2380.0,7748.0,-1427.0,605.0,317.0
2887.0,2801.0,2893.0,3127.0,3015.0,0.878662,0.128784,-0.455139,0.064758,-62.0,35.0,20.0,6898.0,1500.0,3951.0,209.0,128.0,-575.0,541.0,285.0,-125.0,0.816507,0.167367,0.552504,15068.0,634.0,7942.0,-1403.0,810.0,479.0
2875.0,2770.0,2879.0,3115.0,3023.0,0.884094,0.114807,-0.44812,0.065674,-35.0,45.0,16.0,6846.0,959.0,3961.0,231.0,-221.0,-724.0,747.0,-20.0,-259.0,0.80744,0.144141,0.571943,12796.0,814.0,8242.0,-797.0,1035.0,379.0
2875.0,2789.0,2883.0,3093.0,3007.0,0.88678,0.111267,-0.443665,0.066406,-18.0,45.0,8.0,6623.0,837.0,4013.0,55.0,-296.0,-751.0,676.0,-92.0,-433.0,0.801643,0.138415,0.58157,11840.0,1032.0,8250.0,-408.0,1047.0,202.0
2871.0,2773.0,2863.0,3099.0,3007.0,0.891418,0.108398,-0.434692,0.06781,-7.0,41.0,3.0,6480.0,1017.0,4236.0,10.0,-83.0,-667.0,531.0,88.0,-402.0,0.789687,0.134304,0.598517,13490.0,3002.0,9914.0,-139.0,962.0,86.0
2874.0,2787.0,2862.0,3103.0,3011.0,0.893799,0.107117,-0.430054,0.068054,-12.0,43.0,2.0,6441.0,1361.0,4405.0,23.0,271.0,-568.0,384.0,404.0,-290.0,0.783342,0.132948,0.607088,12248.0,4310.0,9572.0,-266.0,1000.0,68.0
2871.0,2783.0,2864.0,3103.0,2991.0,0.898499,0.103088,-0.421387,0.067078,-21.0,41.0,0.0,6482.0,1442.0,4604.0,165.0,387.0,-504.0,399.0,502.0,-137.0,0.771061,0.128718,0.623605,12964.0,2696.0,9936.0,-476.0,941.0,1.0
2871.0,2769.0,2847.0,3090.0,3007.0,0.900696,0.100769,-0.417358,0.066467,-20.0,37.0,-1.0,6375.0,1371.0,4642.0,106.0,338.0,-529.0,389.0,457.0,-210.0,0.765222,0.126043,0.631328,11974.0,2162.0,9522.0,-446.0,866.0,-14.0
2867.0,2779.0,2853.0,3091.0,2997.0,0.904236,0.096802,-0.410583,0.06604,-10.0,31.0,1.0,6232.0,1017.0,4606.0,44.0,27.0,-670.0,512.0,181.0,-395.0,0.755314,0.120833,0.644054,12034.0,1108.0,9066.0,-221.0,711.0,44.0
2879.0,2783.0,2849.0,3102.0,3011.0,0.90564,0.095886,-0.407654,0.066528,-3.0,29.0,2.0,6183.0,903.0,4585.0,29.0,-75.0,-733.0,565.0,95.0,-463.0,0.751133,0.119436,0.649233,12106.0,1282.0,9136.0,-46.0,667.0,65.0
2871.0,2781.0,2849.0,3071.0,3007.0,0.90802,0.096313,-0.402039,0.067505,3.0,24.0,-3.0,6170.0,1029.0,4803.0,82.0,40.0,-588.0,468.0,177.0,-321.0,0.743121,0.12063,0.658146,12554.0,2752.0,10652.0,82.0,563.0,-57.0
2876.0,2783.0,2847.0,3071.0,3007.0,0.90918,0.096741,-0.399353,0.0672,1.0,24.0,-7.0,6247.0,1109.0,4954.0,191.0,107.0,-471.0,442.0,220.0,-157.0,0.739169,0.122237,0.662282,13050.0,2620.0,10800.0,28.0,555.0,-145.0
2879.0,2780.0,2835.0,3071.0,3005.0,0.911743,0.0979,-0.393372,0.065552,1.0,27.0,-13.0,6297.0,1195.0,5124.0,315.0,155.0,-374.0,447.0,250.0,-1.0,0.730143,0.126948,0.671247,12192.0,3114.0,10664.0,35.0,640.0,-290.0
2871.0,2783.0,2849.0,3088.0,3007.0,0.913147,0.098267,-0.39032,0.064087,-5.0,26.0,-14.0,6192.0,1274.0,5181.0,249.0,213.0,-356.0,379.0,298.0,-32.0,0.725434,0.129435,0.675939,11712.0,2838.0,10594.0,-102.0,598.0,-312.0
2882.0,2783.0,2843.0,3071.0,2992.0,0.915588,0.096741,-0.385498,0.060791,-16.0,18.0,-11.0,5934.0,1319.0,5194.0,54.0,251.0,-409.0,274.0,338.0,-208.0,0.717677,0.13028,0.68403,11150.0,2644.0,10524.0,-352.0,416.0,-238.0
2883.0,2778.0,2823.0,3071.0,2991.0,0.916565,0.095215,-0.383789,0.059021,-19.0,14.0,-10.0,5843.0,1237.0,5197.0,-12.0,178.0,-432.0,258.0,268.0,-282.0,0.714775,0.129238,0.687215,11208.0,1770.0,10422.0,-423.0,342.0,-209.0
2876.0,2769.0,2843.0,3071.0,2999.0,0.918152,0.091797,-0.381287,0.056213,-14.0,10.0,-8.0,5757.0,983.0,5220.0,-63.0,-46.0,-451.0,274.0,48.0,-362.0,0.710478,0.1257,0.692357,11394.0,1334.0,10624.0,-303.0,245.0,-163.0
2879.0,2774.0,2855.0,3071.0,2999.0,0.918701,0.091003,-0.380249,0.055115,-8.0,9.0,-9.0,5774.0,923.0,5285.0,-31.0,-103.0,-401.0,271.0,-17.0,-313.0,0.708702,0.125295,0.694179,11740.0,1548.0,11008.0,-170.0,224.0,-186.0
2883.0,2771.0,2837.0,3093.0,2989.0,0.9198,0.090942,-0.377869,0.053223,-2.0,12.0,-9.0,5943.0,1018.0,5520.0,169.0,-23.0,-196.0,257.0,23.0,-20.0,0.704807,0.127075,0.697809,12314.0,2830.0,11756.0,-27.0,279.0,-199.0
2874.0,2775.0,2832.0,3071.0,2994.0,0.920532,0.091248,-0.376282,0.052185,-3.0,14.0,-10.0,5972.0,1170.0,5615.0,218.0,115.0,-120.0,218.0,143.0,83.0,0.702282,0.12872,0.700189,12046.0,3298.0,11794.0,-59.0,323.0,-212.0
2867.0,2785.0,2843.0,3071.0,2991.0,0.922058,0.090454,-0.373047,0.049561,-12.0,12.0,-8.0,5785.0,1309.0,5590.0,75.0,245.0,-187.0,141.0,279.0,-47.0,0.696908,0.129831,0.705302,10708.0,2662.0,10798.0,-259.0,279.0,-181.0
2879.0,2781.0,2843.0,3091.0,3011.0,0.922607,0.089417,-0.372131,0.048279,-14.0,6.0,-7.0,5640.0,1285.0,5524.0,-55.0,227.0,-268.0,106.0,274.0,-198.0,0.695296,0.129061,0.707058,10406.0,2362.0,10664.0,-298.0,160.0,-140.0
2879.0,2781.0,2847.0,3089.0,2999.0,0.922852,0.086853,-0.372375,0.046265,-13.0,-8.0,-2.0,5308.0,1146.0,5382.0,-388.0,115.0,-414.0,-14.0,185.0,-548.0,0.695331,0.125849,0.707588,9752.0,2002.0,10536.0,-296.0,-161.0,-31.0
2877.0,2783.0,2859.0,3071.0,2999.0,0.922363,0.085449,-0.37384,0.045715,-13.0,-16.0,2.0,5256.0,1121.0,5392.0,-457.0,109.0,-389.0,-78.0,172.0,-579.0,0.697446,0.12345,0.705786,10378.0,2148.0,10928.0,-294.0,-357.0,51.0
2879.0,2779.0,2829.0,3071.0,2999.0,0.920532,0.082214,-0.379211,0.045288,-15.0,-27.0,8.0,5442.0,1236.0,5530.0,-338.0,277.0,-195.0,-145.0,301.0,-342.0,0.705599,0.117014,0.69887,11834.0,3024.0,11612.0,-343.0,-599.0,186.0
2878.0,2781.0,2850.0,3087.0,3003.0,0.919312,0.080444,-0.382568,0.045105,-17.0,-29.0,8.0,5641.0,1259.0,5639.0,-180.0,330.0,-49.0,-140.0,329.0,-124.0,0.710656,0.113395,0.694338,12462.0,2440.0,11962.0,-372.0,-648.0,196.0
2863.0,2799.0,2849.0,3071.0,2987.0,0.916687,0.077637,-0.389343,0.044617,-8.0,-28.0,2.0,6102.0,1138.0,5867.0,197.0,256.0,258.0,-82.0,210.0,346.0,0.72074,0.107595,0.68469,13902.0,1674.0,12446.0,-179.0,-641.0,54.0
2879.0,2787.0,2847.0,3103.0,2992.0,0.915466,0.077637,-0.392273,0.044067,-1.0,-24.0,-5.0,6446.0,1136.0,5979.0,506.0,254.0,407.0,22.0,188.0,671.0,0.725068,0.107575,0.680115,14850.0,2366.0,12526.0,-8.0,-530.0,-107.0
2886.0,2815.0,2867.0,3103.0,3007.0,0.914124,0.080322,-0.395386,0.040161,1.0,-13.0,-24.0,5874.0,1223.0,5213.0,-100.0,280.0,-312.0,116.0,330.0,-251.0,0.729315,0.115091,0.674453,7290.0,2540.0,7046.0,36.0,-279.0,-539.0
2879.0,2798.0,2879.0,3135.0,3003.0,0.913147,0.081604,-0.397705,0.036621,-6.0,-29.0,-28.0,5380.0,1148.0,4821.0,-619.0,165.0,-670.0,39.0,280.0,-882.0,0.732303,0.119904,0.67035,8684.0,1664.0,8198.0,-125.0,-655.0,-634.0
2891.0,2807.0,2880.0,3119.0,3019.0,0.908813,0.081482,-0.408081,0.029358,-14.0,-59.0,-19.0,5335.0,883.0,4817.0,-780.0,-133.0,-537.0,-107.0,-28.0,-949.0,0.746523,0.124143,0.653634,11508.0,680.0,9822.0,-308.0,-1340.0,-414.0
2887.0,2819.0,2900.0,3127.0,3013.0,0.905701,0.080505,-0.415222,0.027283,-11.0,-66.0,-6.0,5870.0,693.0,4973.0,-327.0,-316.0,-287.0,37.0,-257.0,-470.0,0.756527,0.123171,0.642147,15600.0,246.0,11004.0,-244.0,-1490.0,-119.0
2893.0,2827.0,2887.0,3121.0,3031.0,0.899109,0.079163,-0.429443,0.030334,12.0,-53.0,28.0,6862.0,690.0,5205.0,496.0,-262.0,137.0,239.0,-287.0,439.0,0.777035,0.116298,0.618629,16752.0,2158.0,10712.0,293.0,-1201.0,644.0
2899.0,2825.0,2885.0,3142.0,3047.0,0.89624,0.080078,-0.434814,0.034973,25.0,-40.0,37.0,7393.0,999.0,5403.0,962.0,72.0,414.0,265.0,-7.0,1015.0,0.784998,0.113125,0.608994,17606.0,3968.0,12164.0,582.0,-904.0,861.0
2899.0,2827.0,2887.0,3127.0,3045.0,0.892456,0.086182,-0.440308,0.046692,51.0,-19.0,33.0,6716.0,1443.0,5314.0,211.0,519.0,420.0,-281.0,428.0,476.0,0.793958,0.112709,0.59736,9012.0,3904.0,9408.0,1171.0,-425.0,767.0
2907.0,2831.0,2899.0,3151.0,3039.0,0.890564,0.092041,-0.442322,0.052246,64.0,-27.0,23.0,6112.0,1526.0,5334.0,-420.0,561.0,486.0,-729.0,441.0,18.0,0.797449,0.117718,0.591714,8746.0,3624.0,11802.0,1483.0,-610.0,534.0
2925.0,2833.0,2909.0,3135.0,3039.0,0.88501,0.10791,-0.448181,0.064758,92.0,-51.0,27.0,4912.0,1214.0,6353.0,-1701.0,124.0,1643.0,-2309.0,-319.0,-412.0,0.807266,0.132956,0.574925,5804.0,1582.0,17418.0,2111.0,-1147.0,632.0
2911.0,2827.0,2907.0,3151.0,3039.0,0.882019,0.114319,-0.451294,0.072632,74.0,-45.0,42.0,5040.0,1226.0,6132.0,-1617.0,111.0,1491.0,-2129.0,-331.0,-454.0,0.812706,0.136106,0.566498,12944.0,3214.0,9136.0,1713.0,-1020.0,964.0
2935.0,2815.0,2893.0,3151.0,3055.0,0.87561,0.121399,-0.459167,0.08783,43.0,-9.0,46.0,7095.0,1411.0,5229.0,333.0,330.0,732.0,-473.0,114.0,720.0,0.825428,0.131939,0.548835,18836.0,4014.0,7400.0,995.0,-200.0,1069.0
2935.0,2823.0,2930.0,3143.0,3062.0,0.874634,0.123108,-0.459412,0.093628,27.0,11.0,34.0,7405.0,1600.0,4631.0,632.0,540.0,145.0,91.0,502.0,671.0,0.826687,0.129321,0.547536,16130.0,3914.0,5836.0,640.0,259.0,793.0
2935.0,2819.0,2893.0,3135.0,3047.0,0.875366,0.125061,-0.456116,0.100159,17.0,22.0,10.0,6845.0,996.0,3534.0,98.0,-49.0,-993.0,837.0,267.0,-474.0,0.823588,0.12758,0.552616,9838.0,-622.0,3676.0,395.0,526.0,246.0
2925.0,2831.0,2907.0,3143.0,3039.0,0.875305,0.125854,-0.455383,0.102905,19.0,7.0,12.0,6269.0,556.0,3164.0,-473.0,-481.0,-1370.0,931.0,-56.0,-1208.0,0.823101,0.126599,0.553535,9380.0,-1084.0,4948.0,453.0,174.0,295.0
2935.0,2827.0,2919.0,3143.0,3049.0,0.87323,0.127502,-0.457336,0.109802,17.0,-10.0,24.0,6012.0,467.0,3006.0,-760.0,-534.0,-1492.0,890.0,-78.0,-1512.0,0.82672,0.122245,0.549174,12950.0,1340.0,5718.0,397.0,-229.0,552.0
2939.0,2815.0,2899.0,3151.0,3055.0,0.871948,0.127625,-0.458984,0.112732,10.0,-7.0,20.0,6487.0,391.0,3011.0,-305.0,-584.0,-1462.0,1142.0,-97.0,-1120.0,0.829196,0.11908,0.546048,16352.0,-10.0,5972.0,233.0,-146.0,469.0
2943.0,2835.0,2896.0,3143.0,3061.0,0.871399,0.126709,-0.459167,0.117249,8.0,19.0,8.0,7236.0,61.0,3001.0,437.0,-865.0,-1473.0,1653.0,-291.0,-539.0,0.829949,0.113155,0.546193,15268.0,-286.0,6414.0,194.0,452.0,201.0
2943.0,2831.0,2898.0,3150.0,3055.0,0.872375,0.126892,-0.456848,0.118774,10.0,27.0,2.0,7038.0,84.0,3068.0,261.0,-840.0,-1440.0,1520.0,-290.0,-671.0,0.827229,0.112871,0.550335,12354.0,456.0,6548.0,230.0,636.0,52.0
2958.0,2831.0,2903.0,3143.0,3056.0,0.87439,0.128052,-0.452332,0.119995,7.0,14.0,-4.0,6241.0,211.0,3228.0,-490.0,-734.0,-1342.0,984.0,-288.0,-1236.0,0.821759,0.115379,0.557955,10444.0,640.0,7092.0,168.0,333.0,-84.0
2929.0,2832.0,2914.0,3159.0,3051.0,0.874756,0.128723,-0.451355,0.1203,7.0,6.0,-3.0,6231.0,351.0,3436.0,-491.0,-604.0,-1146.0,790.0,-230.0,-1114.0,0.820622,0.116606,0.559379,13018.0,1764.0,8262.0,167.0,146.0,-51.0
2935.0,2831.0,2915.0,3149.0,3059.0,0.875549,0.130493,-0.449341,0.1203,5.0,12.0,-7.0,6626.0,745.0,3809.0,-76.0,-241.0,-795.0,636.0,34.0,-538.0,0.818237,0.120395,0.562123,14622.0,2544.0,8630.0,124.0,285.0,-150.0
2948.0,2832.0,2903.0,3147.0,3039.0,0.876404,0.131348,-0.447571,0.119751,3.0,18.0,-11.0,6839.0,870.0,3930.0,154.0,-137.0,-697.0,657.0,121.0,-284.0,0.815964,0.123033,0.564852,14712.0,2454.0,8480.0,88.0,424.0,-233.0
2949.0,2831.0,2913.0,3135.0,3061.0,0.878967,0.13269,-0.442627,0.117676,-2.0,22.0,-14.0,6818.0,1136.0,4120.0,187.0,78.0,-573.0,511.0,283.0,-166.0,0.809338,0.129088,0.572906,13766.0,2714.0,8852.0,-33.0,508.0,-303.0
2955.0,2832.0,2907.0,3151.0,3055.0,0.880371,0.132812,-0.440063,0.116699,-3.0,24.0,-11.0,6795.0,1141.0,4176.0,193.0,66.0,-553.0,503.0,265.0,-155.0,0.805837,0.131138,0.577377,13128.0,2340.0,8632.0,-57.0,558.0,-232.0
2931.0,2834.0,2895.0,3149.0,3047.0,0.882874,0.132751,-0.435364,0.115723,-1.0,15.0,-5.0,6160.0,1125.0,4226.0,-389.0,30.0,-571.0,180.0,184.0,-641.0,0.799467,0.133643,0.585693,10472.0,2144.0,8722.0,-6.0,345.0,-111.0
2945.0,2829.0,2895.0,3159.0,3055.0,0.883484,0.132996,-0.434021,0.115662,2.0,10.0,-3.0,6026.0,1086.0,4310.0,-508.0,-16.0,-505.0,73.0,109.0,-704.0,0.797666,0.1346,0.587859,10594.0,1994.0,9134.0,64.0,243.0,-50.0
2955.0,2835.0,2911.0,3135.0,3051.0,0.883911,0.134155,-0.432739,0.115845,4.0,5.0,-2.0,6341.0,1179.0,4443.0,-180.0,57.0,-385.0,156.0,167.0,-362.0,0.796088,0.136902,0.589458,14534.0,2792.0,9044.0,112.0,132.0,-37.0
2943.0,2835.0,2893.0,3143.0,3051.0,0.884216,0.134644,-0.431885,0.115967,2.0,10.0,-2.0,6517.0,1292.0,4527.0,4.0,161.0,-311.0,178.0,256.0,-158.0,0.794987,0.137939,0.590633,13664.0,3200.0,9566.0,52.0,249.0,-32.0
2950.0,2851.0,2906.0,3158.0,3059.0,0.885071,0.133911,-0.430237,0.116516,-5.0,3.0,7.0,6298.0,1294.0,4460.0,-196.0,173.0,-405.0,122.0,280.0,-372.0,0.792786,0.136783,0.59389,12828.0,2378.0,8858.0,-98.0,84.0,167.0
2941.0,2830.0,2894.0,3166.0,3046.0,0.885071,0.132812,-0.430237,0.117432,-6.0,3.0,11.0,6263.0,1293.0,4398.0,-231.0,194.0,-471.0,142.0,318.0,-437.0,0.792773,0.13405,0.594398,11804.0,2662.0,8246.0,-127.0,69.0,263.0
2955.0,2832.0,2902.0,3143.0,3044.0,0.884033,0.129761,-0.432983,0.118958,-13.0,-22.0,14.0,5458.0,1118.0,3947.0,-1066.0,82.0,-897.0,-3.0,270.0,-1369.0,0.796415,0.126412,0.591353,8220.0,1148.0,6142.0,-285.0,-491.0,334.0
2945.0,2835.0,2917.0,3155.0,3067.0,0.882019,0.128113,-0.4375,0.119019,-14.0,-44.0,10.0,5226.0,820.0,3602.0,-1346.0,-178.0,-1184.0,142.0,92.0,-1793.0,0.802262,0.121855,0.584304,9570.0,-374.0,5106.0,-299.0,-988.0,234.0
2945.0,2835.0,2928.0,3159.0,3047.0,0.875183,0.128296,-0.451843,0.115601,-2.0,-67.0,-19.0,5691.0,169.0,3124.0,-1030.0,-814.0,-1452.0,782.0,-376.0,-1754.0,0.820553,0.120098,0.558687,13408.0,-948.0,5524.0,-36.0,-1532.0,-425.0
2933.0,2823.0,2883.0,3147.0,3039.0,0.871582,0.13092,-0.459106,0.111511,3.0,-66.0,-38.0,5965.0,64.0,3069.0,-830.0,-966.0,-1388.0,914.0,-511.0,-1565.0,0.829496,0.125825,0.544171,13328.0,-298.0,5832.0,88.0,-1507.0,-849.0
2939.0,2832.0,2907.0,3131.0,3047.0,0.865417,0.137878,-0.471252,0.099487,-5.0,-61.0,-52.0,5853.0,343.0,3270.0,-1053.0,-843.0,-971.0,455.0,-515.0,-1512.0,0.843095,0.144878,0.517756,10288.0,2478.0,7904.0,-94.0,-1392.0,-1183.0
2923.0,2819.0,2902.0,3154.0,3051.0,0.863098,0.139893,-0.476379,0.092224,-20.0,-59.0,-50.0,5484.0,487.0,3529.0,-1463.0,-771.0,-623.0,-52.0,-560.0,-1675.0,0.848127,0.153615,0.506936,8948.0,1660.0,8490.0,-450.0,-1335.0,-1138.0
2905.0,2827.0,2887.0,3126.0,3022.0,0.861755,0.137573,-0.481689,0.0802,-37.0,8.0,-22.0,7942.0,852.0,4249.0,960.0,-457.0,168.0,490.0,-481.0,828.0,0.852264,0.159846,0.498103,24008.0,2736.0,11290.0,-830.0,186.0,-494.0
2903.0,2807.0,2898.0,3115.0,3023.0,0.865051,0.133484,-0.477173,0.078064,-39.0,60.0,-3.0,8068.0,1515.0,4300.0,1134.0,233.0,131.0,437.0,190.0,1062.0,0.846399,0.156441,0.508896,15144.0,8196.0,8486.0,-889.0,1383.0,-55.0
2865.0,2794.0,2835.0,3063.0,3014.0,0.877441,0.122253,-0.458069,0.072998,-74.0,105.0,-5.0,7630.0,2560.0,3987.0,898.0,1350.0,-522.0,597.0,1456.0,649.0,0.821706,0.147664,0.550459,13210.0,7306.0,7222.0,-1686.0,2408.0,-99.0
2878.0,2780.0,2847.0,3071.0,3007.0,0.884216,0.112549,-0.44812,0.06842,-99.0,95.0,-4.0,6968.0,2464.0,4131.0,349.0,1335.0,-563.0,346.0,1442.0,143.0,0.807872,0.137714,0.573041,9392.0,3612.0,9730.0,-2252.0,2197.0,-72.0
2865.0,2771.0,2854.0,3059.0,3001.0,0.894592,0.086853,-0.434204,0.059937,-108.0,46.0,13.0,6228.0,1100.0,4479.0,-221.0,253.0,-500.0,200.0,344.0,-451.0,0.787283,0.103347,0.607811,12732.0,-3882.0,10450.0,-2457.0,1056.0,318.0
2875.0,2777.0,2845.0,3059.0,2993.0,0.897217,0.07489,-0.431152,0.058533,-78.0,35.0,20.0,6451.0,91.0,4514.0,41.0,-596.0,-539.0,538.0,-483.0,-350.0,0.782441,0.083912,0.616923,14662.0,-5666.0,9354.0,-1764.0,808.0,469.0
2865.0,2775.0,2843.0,3063.0,2993.0,0.901611,0.06488,-0.423279,0.060913,-2.0,47.0,8.0,6758.0,-240.0,4943.0,440.0,-775.0,-244.0,591.0,-697.0,134.0,0.77117,0.065427,0.633239,13806.0,1266.0,11624.0,-34.0,1081.0,197.0
2873.0,2779.0,2827.0,3067.0,2993.0,0.903992,0.065491,-0.417908,0.061523,9.0,46.0,-4.0,6783.0,59.0,5221.0,527.0,-489.0,-38.0,448.0,-444.0,345.0,0.763629,0.066984,0.64205,14234.0,1694.0,12134.0,213.0,1074.0,-79.0
2871.0,2783.0,2835.0,3063.0,3013.0,0.909058,0.068237,-0.406311,0.061584,6.0,51.0,-7.0,6732.0,951.0,5653.0,611.0,344.0,242.0,170.0,330.0,641.0,0.747125,0.074018,0.660433,12426.0,4416.0,11860.0,158.0,1174.0,-157.0
2870.0,2783.0,2831.0,3071.0,2992.0,0.91156,0.069275,-0.400574,0.061035,1.0,47.0,-8.0,6394.0,1301.0,5605.0,342.0,666.0,121.0,31.0,652.0,385.0,0.73875,0.077398,0.669409,10438.0,4434.0,10620.0,34.0,1087.0,-181.0
2875.0,2779.0,2839.0,3061.0,2997.0,0.9151,0.069092,-0.392883,0.058533,-12.0,20.0,-8.0,5448.0,1485.0,5205.0,-508.0,825.0,-379.0,-211.0,849.0,-561.0,0.727143,0.080459,0.681703,8712.0,2890.0,9542.0,-269.0,459.0,-167.0
2870.0,2779.0,2837.0,3069.0,3007.0,0.915771,0.068176,-0.391724,0.05719,-14.0,4.0,-5.0,5271.0,1380.0,5159.0,-670.0,724.0,-442.0,-260.0,753.0,-730.0,0.725257,0.080062,0.683813,9876.0,1972.0,10240.0,-310.0,114.0,-114.0
2874.0,2783.0,2843.0,3071.0,3005.0,0.915344,0.065369,-0.393311,0.055725,-15.0,-13.0,4.0,5484.0,1181.0,5394.0,-474.0,559.0,-192.0,-273.0,558.0,-433.0,0.727314,0.075835,0.681994,12148.0,1990.0,11774.0,-340.0,-292.0,92.0
2871.0,2783.0,2838.0,3071.0,2999.0,0.914795,0.063477,-0.394958,0.055481,-17.0,-14.0,7.0,5727.0,1118.0,5536.0,-250.0,525.0,-33.0,-226.0,509.0,-166.0,0.729656,0.072311,0.679906,13010.0,1802.0,11884.0,-375.0,-311.0,163.0
2869.0,2775.0,2839.0,3071.0,2999.0,0.914062,0.059509,-0.397217,0.055542,-15.0,-4.0,7.0,6138.0,852.0,5624.0,135.0,322.0,75.0,-10.0,313.0,170.0,0.732772,0.064666,0.677273,13090.0,696.0,11184.0,-324.0,-79.0,162.0
2869.0,2783.0,2847.0,3071.0,3007.0,0.914062,0.057739,-0.397461,0.055664,-13.0,1.0,5.0,6197.0,689.0,5553.0,191.0,186.0,4.0,99.0,193.0,154.0,0.733036,0.061306,0.6773,12608.0,432.0,10654.0,-277.0,39.0,129.0
2864.0,2781.0,2847.0,3089.0,3015.0,0.91449,0.055054,-0.396912,0.055786,-7.0,5.0,2.0,6055.0,397.0,5309.0,57.0,-65.0,-252.0,229.0,-24.0,-133.0,0.732086,0.056408,0.678834,11360.0,-42.0,9830.0,-157.0,128.0,56.0
2870.0,2781.0,2847.0,3088.0,3003.0,0.914673,0.054077,-0.396606,0.055847,-6.0,3.0,2.0,5890.0,252.0,5175.0,-103.0,-195.0,-391.0,239.0,-142.0,-351.0,0.73157,0.054627,0.679524,10744.0,-354.0,9554.0,-125.0,81.0,54.0
2867.0,2783.0,2853.0,3088.0,3003.0,0.91449,0.05249,-0.397156,0.056885,-1.0,-5.0,6.0,5718.0,24.0,5097.0,-281.0,-392.0,-465.0,201.0,-339.0,-541.0,0.732362,0.050819,0.679039,11240.0,-318.0,10318.0,-12.0,-94.0,151.0
2868.0,2779.0,2847.0,3095.0,3007.0,0.914124,0.052063,-0.397827,0.057922,1.0,-7.0,8.0,5706.0,19.0,5143.0,-301.0,-383.0,-411.0,149.0,-339.0,-518.0,0.733358,0.049098,0.678,11326.0,116.0,10570.0,38.0,-139.0,204.0
2875.0,2775.0,2843.0,3071.0,3015.0,0.913269,0.051819,-0.399475,0.060181,2.0,-8.0,8.0,5660.0,199.0,5238.0,-368.0,-182.0,-295.0,-6.0,-162.0,-478.0,0.735893,0.046568,0.675417,11290.0,1126.0,10796.0,65.0,-181.0,188.0
2869.0,2781.0,2853.0,3071.0,3005.0,0.912903,0.05188,-0.400208,0.060913,1.0,-7.0,5.0,5725.0,314.0,5315.0,-312.0,-62.0,-208.0,-49.0,-53.0,-373.0,0.737022,0.045967,0.674244,11990.0,1282.0,11100.0,37.0,-153.0,128.0
2877.0,2786.0,2847.0,3143.0,3007.0,0.91272,0.051819,-0.400574,0.061035,-3.0,1.0,-2.0,5917.0,431.0,5378.0,-124.0,56.0,-140.0,9.0,66.0,-183.0,0.737549,0.045694,0.673638,12156.0,1002.0,10602.0,-46.0,42.0,-26.0
2874.0,2786.0,2847.0,3091.0,3011.0,0.912903,0.051697,-0.400208,0.060486,-3.0,4.0,-4.0,5926.0,431.0,5329.0,-111.0,54.0,-194.0,57.0,73.0,-210.0,0.736955,0.045974,0.674212,11828.0,808.0,10344.0,-65.0,102.0,-91.0
2870.0,2785.0,2853.0,3089.0,3007.0,0.913452,0.051208,-0.399231,0.059326,-3.0,4.0,-4.0,5905.0,233.0,5232.0,-119.0,-145.0,-305.0,162.0,-108.0,-300.0,0.735433,0.046183,0.675907,11740.0,-340.0,10082.0,-63.0,110.0,-77.0
2869.0,2787.0,2869.0,3091.0,3011.0,0.913635,0.050903,-0.398987,0.059265,-1.0,3.0,-1.0,5859.0,178.0,5192.0,-162.0,-196.0,-349.0,172.0,-155.0,-364.0,0.73509,0.045722,0.67646,11354.0,216.0,10184.0,-3.0,74.0,-5.0
2875.0,2783.0,2845.0,3071.0,3007.0,0.913635,0.051208,-0.398743,0.059692,2.0,-1.0,0.0,5763.0,281.0,5214.0,-255.0,-95.0,-329.0,79.0,-64.0,-414.0,0.734724,0.045968,0.676674,11474.0,908.0,10630.0,56.0,-11.0,21.0
2877.0,2811.0,2857.0,3089.0,3011.0,0.913574,0.051514,-0.398865,0.059875,2.0,-2.0,0.0,5800.0,348.0,5273.0,-220.0,-31.0,-268.0,49.0,-7.0,-344.0,0.734954,0.046359,0.676456,11904.0,1100.0,10928.0,55.0,-26.0,22.0
2887.0,2801.0,2859.0,3099.0,3026.0,0.953552,0.043457,-0.288513,-0.074463,0.0,1.0,1.0,4334.0,1022.0,6637.0,-120.0,-8.0,-159.0,-11.0,18.0,-198.0,0.543753,0.125844,0.829678,8562.0,1994.0,13254.0,5.0,40.0,30.0
2879.0,2798.0,2868.0,3103.0,3015.0,0.953674,0.043457,-0.288208,-0.074158,0.0,0.0,1.0,4280.0,998.0,6640.0,-170.0,-31.0,-159.0,-55.0,4.0,-228.0,0.543268,0.125633,0.830042,8430.0,1902.0,13320.0,10.0,9.0,26.0
2883.0,2797.0,2857.0,3119.0,3027.0,0.953674,0.043457,-0.288208,-0.073975,0.0,0.0,1.0,4276.0,987.0,6648.0,-174.0,-41.0,-151.0,-63.0,-5.0,-225.0,0.543284,0.125528,0.830015,8566.0,1914.0,13368.0,16.0,1.0,23.0
2885.0,2799.0,2864.0,3111.0,3019.0,0.953735,0.04364,-0.288086,-0.07373,1.0,0.0,0.0,4277.0,968.0,6650.0,-171.0,-61.0,-150.0,-64.0,-25.0,-225.0,0.54308,0.125724,0.830149,8514.0,1882.0,13278.0,27.0,9.0,11.0
2883.0,2794.0,2843.0,3095.0,3019.0,0.953735,0.043762,-0.288025,-0.073669,1.0,0.0,0.0,4266.0,960.0,6641.0,-181.0,-71.0,-159.0,-68.0,-33.0,-239.0,0.542951,0.125912,0.830165,8464.0,1878.0,13208.0,33.0,12.0,4.0
2879.0,2797.0,2871.0,3103.0,3015.0,0.953796,0.044128,-0.287903,-0.073547,1.0,0.0,0.0,4256.0,967.0,6624.0,-189.0,-69.0,-177.0,-65.0,-29.0,-258.0,0.54271,0.126528,0.830301,8512.0,1974.0,13142.0,40.0,4.0,0.0
2881.0,2799.0,2863.0,3109.0,3023.0,0.953796,0.044312,-0.287903,-0.073486,1.0,0.0,0.0,4259.0,980.0,6617.0,-186.0,-59.0,-184.0,-57.0,-19.0,-261.0,0.542689,0.126842,0.830276,8554.0,2054.0,13186.0,41.0,3.0,1.0
2882.0,2797.0,2851.0,3111.0,3025.0,0.953796,0.044739,-0.287842,-0.073303,1.0,0.0,0.0,4294.0,1005.0,6616.0,-150.0,-39.0,-185.0,-25.0,-5.0,-239.0,0.542526,0.127543,0.830246,8700.0,2058.0,13212.0,41.0,11.0,5.0
2881.0,2799.0,2865.0,3111.0,3023.0,0.953796,0.044983,-0.287842,-0.073242,1.0,0.0,0.0,4314.0,1021.0,6612.0,-130.0,-27.0,-189.0,-5.0,3.0,-230.0,0.542496,0.127973,0.830216,8758.0,2144.0,13222.0,40.0,16.0,9.0
2883.0,2799.0,2863.0,3111.0,3027.0,0.953857,0.045288,-0.287659,-0.072998,1.0,0.0,0.0,4326.0,1035.0,6635.0,-115.0,-16.0,-167.0,-3.0,10.0,-203.0,0.542159,0.128394,0.830374,8626.0,2088.0,13350.0,27.0,18.0,11.0
2883.0,2795.0,2868.0,3119.0,3019.0,0.953857,0.04541,-0.287598,-0.072937,0.0,0.0,0.0,4319.0,1029.0,6644.0,-121.0,-24.0,-158.0,-14.0,3.0,-199.0,0.54203,0.128583,0.830389,8634.0,1984.0,13370.0,21.0,12.0,5.0
2887.0,2795.0,2863.0,3109.0,3023.0,0.953918,0.045593,-0.287476,-0.072815,1.0,0.0,0.0,4310.0,994.0,6666.0,-128.0,-61.0,-137.0,-36.0,-32.0,-190.0,0.541817,0.12885,0.830541,8530.0,1938.0,13348.0,30.0,11.0,3.0
2881.0,2795.0,2863.0,3115.0,3014.0,0.953918,0.045776,-0.287415,-0.072754,1.0,0.0,-1.0,4291.0,993.0,6673.0,-146.0,-65.0,-130.0,-55.0,-34.0,-195.0,0.541679,0.129155,0.830551,8442.0,1984.0,13400.0,35.0,14.0,-1.0
2887.0,2799.0,2855.0,3103.0,3021.0,0.953979,0.046204,-0.287109,-0.072632,1.0,0.0,-1.0,4238.0,1026.0,6692.0,-194.0,-37.0,-113.0,-101.0,0.0,-203.0,0.541081,0.129861,0.830786,8320.0,2190.0,13416.0,45.0,15.0,-5.0
2889.0,2800.0,2864.0,3103.0,3019.0,0.954041,0.046509,-0.286987,-0.072632,2.0,0.0,-1.0,4210.0,1047.0,6696.0,-220.0,-21.0,-111.0,-122.0,20.0,-213.0,0.540839,0.130431,0.830944,8252.0,2212.0,13416.0,48.0,12.0,-6.0
2881.0,2801.0,2863.0,3115.0,3031.0,0.954041,0.047119,-0.286804,-0.072571,2.0,0.0,-1.0,4163.0,1096.0,6699.0,-264.0,18.0,-108.0,-155.0,66.0,-230.0,0.540407,0.131534,0.830983,8246.0,2308.0,13438.0,50.0,3.0,-2.0
2885.0,2795.0,2858.0,3110.0,3013.0,0.954102,0.047424,-0.286682,-0.072449,2.0,0.0,0.0,4149.0,1106.0,6694.0,-276.0,24.0,-114.0,-161.0,74.0,-240.0,0.540176,0.132035,0.831123,8210.0,2252.0,13368.0,56.0,3.0,9.0
2882.0,2799.0,2869.0,3115.0,3023.0,0.954102,0.048279,-0.286621,-0.072021,4.0,-1.0,1.0,4117.0,1100.0,6647.0,-306.0,7.0,-160.0,-163.0,65.0,-297.0,0.539977,0.133412,0.831014,8124.0,2208.0,13060.0,100.0,-3.0,28.0
2866.0,2795.0,2854.0,3131.0,3027.0,0.954102,0.048889,-0.286621,-0.071716,5.0,-1.0,1.0,4103.0,1107.0,6603.0,-320.0,5.0,-203.0,-151.0,68.0,-340.0,0.539919,0.134401,0.830911,8132.0,2258.0,12940.0,122.0,-8.0,27.0
2882.0,2800.0,2871.0,3107.0,3023.0,0.954041,0.050293,-0.286804,-0.070984,6.0,-1.0,1.0,4115.0,1140.0,6512.0,-309.0,20.0,-291.0,-91.0,86.0,-405.0,0.540106,0.13668,0.830446,8346.0,2416.0,12720.0,148.0,-6.0,33.0
2864.0,2786.0,2854.0,3111.0,3019.0,0.953979,0.051086,-0.286804,-0.070618,6.0,0.0,1.0,4139.0,1158.0,6476.0,-284.0,27.0,-324.0,-51.0,91.0,-418.0,0.539995,0.137978,0.830197,8412.0,2412.0,12748.0,155.0,12.0,35.0
2887.0,2799.0,2867.0,3113.0,3019.0,0.953979,0.052795,-0.286682,-0.069702,7.0,2.0,1.0,4180.0,1173.0,6398.0,-240.0,20.0,-401.0,26.0,83.0,-459.0,0.539618,0.140696,0.829961,8414.0,2378.0,12564.0,172.0,54.0,45.0
2879.0,2795.0,2862.0,3123.0,3023.0,0.954041,0.053711,-0.286499,-0.069153,7.0,2.0,2.0,4189.0,1185.0,6368.0,-228.0,20.0,-431.0,52.0,83.0,-477.0,0.539235,0.142109,0.830009,8426.0,2450.0,12568.0,182.0,65.0,56.0
2879.0,2799.0,2862.0,3107.0,3023.0,0.954163,0.055481,-0.286072,-0.067871,7.0,3.0,3.0,4206.0,1228.0,6347.0,-204.0,42.0,-453.0,86.0,104.0,-479.0,0.538387,0.144708,0.830118,8484.0,2610.0,12712.0,174.0,72.0,80.0
2881.0,2798.0,2864.0,3111.0,3023.0,0.954224,0.056274,-0.285828,-0.0672,6.0,3.0,3.0,4219.0,1247.0,6358.0,-187.0,52.0,-442.0,94.0,111.0,-459.0,0.537924,0.145812,0.830194,8534.0,2596.0,12788.0,158.0,80.0,82.0
2889.0,2799.0,2871.0,3107.0,3019.0,0.954468,0.057678,-0.285156,-0.065918,6.0,4.0,3.0,4223.0,1247.0,6359.0,-173.0,37.0,-446.0,106.0,96.0,-457.0,0.536741,0.147698,0.830713,8426.0,2442.0,12690.0,140.0,94.0,77.0
2875.0,2802.0,2871.0,3103.0,3027.0,0.95459,0.05835,-0.28479,-0.065308,6.0,3.0,3.0,4226.0,1248.0,6385.0,-165.0,30.0,-422.0,98.0,86.0,-434.0,0.536094,0.148598,0.830997,8472.0,2480.0,12912.0,138.0,89.0,74.0
2875.0,2799.0,2863.0,3115.0,3023.0,0.954712,0.059937,-0.28418,-0.064087,8.0,2.0,2.0,4167.0,1141.0,6385.0,-215.0,-94.0,-424.0,46.0,-25.0,-481.0,0.534937,0.150869,0.831231,7974.0,1770.0,12734.0,198.0,65.0,56.0
2887.0,2800.0,2871.0,3115.0,3035.0,0.954773,0.061035,-0.283997,-0.063416,12.0,1.0,2.0,4045.0,1028.0,6344.0,-334.0,-221.0,-465.0,-40.0,-128.0,-598.0,0.534563,0.152569,0.831234,7166.0,1314.0,12362.0,282.0,29.0,52.0
2885.0,2797.0,2865.0,3103.0,3013.0,0.954468,0.06543,-0.284424,-0.061279,32.0,-4.0,0.0,3585.0,392.0,6041.0,-797.0,-916.0,-754.0,-319.0,-710.0,-1198.0,0.534928,0.15976,0.829586,5432.0,-1728.0,11012.0,752.0,-70.0,16.0
2883.0,2791.0,2861.0,3111.0,3031.0,0.954163,0.070007,-0.284851,-0.059509,51.0,-4.0,-1.0,3150.0,4.0,5804.0,-1234.0,-1368.0,-978.0,-586.0,-1058.0,-1699.0,0.535256,0.167499,0.827926,3364.0,-2362.0,10114.0,1181.0,-89.0,-13.0
2879.0,2800.0,2847.0,3095.0,3007.0,0.952271,0.086975,-0.287354,-0.054504,86.0,-20.0,-2.0,3150.0,666.0,6350.0,-1255.0,-947.0,-364.0,-888.0,-685.0,-1159.0,0.537795,0.196972,0.819653,8952.0,6020.0,17338.0,1984.0,-439.0,-34.0
2877.0,2786.0,2855.0,3111.0,2994.0,0.950562,0.097473,-0.290161,-0.052063,83.0,-25.0,0.0,3691.0,1640.0,7105.0,-744.0,-125.0,448.0,-871.0,-75.0,-65.0,0.541483,0.215522,0.812583,10608.0,9320.0,18450.0,1924.0,-550.0,5.0
2865.0,2783.0,2853.0,3103.0,3007.0,0.947388,0.112732,-0.295593,-0.047974,39.0,-21.0,8.0,4465.0,3173.0,7904.0,-34.0,1190.0,1352.0,-770.0,909.0,1350.0,0.549267,0.241963,0.799761,10666.0,8794.0,16950.0,895.0,-464.0,188.0
2865.0,2790.0,2859.0,3103.0,3007.0,0.946411,0.115662,-0.297852,-0.046265,20.0,-18.0,12.0,4637.0,3228.0,7850.0,106.0,1208.0,1331.0,-655.0,899.0,1415.0,0.553078,0.246487,0.795741,10020.0,6358.0,14706.0,468.0,-407.0,286.0
2881.0,2775.0,2843.0,3103.0,3007.0,0.944824,0.119019,-0.302185,-0.042603,23.0,-15.0,11.0,4748.0,2519.0,7125.0,153.0,465.0,661.0,-255.0,295.0,723.0,0.560883,0.250651,0.789027,10020.0,2552.0,12074.0,549.0,-333.0,258.0
2883.0,2783.0,2863.0,3111.0,3023.0,0.943848,0.122009,-0.304199,-0.040283,34.0,-12.0,9.0,4905.0,2271.0,6855.0,281.0,183.0,423.0,-18.0,47.0,537.0,0.564406,0.254825,0.785048,10700.0,3432.0,12186.0,798.0,-254.0,215.0
2891.0,2783.0,2851.0,3107.0,3007.0,0.942139,0.1297,-0.307007,-0.035828,31.0,-9.0,8.0,4751.0,2449.0,6391.0,88.0,266.0,18.0,57.0,239.0,134.0,0.569192,0.266389,0.777834,8426.0,6012.0,11518.0,726.0,-187.0,198.0
2877.0,2769.0,2833.0,3103.0,2979.0,0.941284,0.132507,-0.308594,-0.034241,21.0,-14.0,9.0,4599.0,2607.0,6244.0,-85.0,390.0,-99.0,-16.0,410.0,-19.0,0.571875,0.270587,0.7744,8340.0,6016.0,11676.0,491.0,-301.0,207.0
2885.0,2783.0,2855.0,3091.0,3023.0,0.939636,0.134644,-0.312927,-0.031555,7.0,-20.0,13.0,4369.0,2490.0,5925.0,-378.0,255.0,-365.0,-91.0,384.0,-429.0,0.579578,0.272781,0.76786,8140.0,4182.0,10982.0,165.0,-456.0,300.0
2881.0,2772.0,2850.0,3109.0,2991.0,0.938721,0.134705,-0.315796,-0.029968,6.0,-24.0,15.0,4367.0,2350.0,5865.0,-423.0,123.0,-395.0,-104.0,270.0,-515.0,0.584815,0.271828,0.764222,8854.0,4024.0,11504.0,139.0,-537.0,360.0
2873.0,2773.0,2842.0,3071.0,3011.0,0.937073,0.134705,-0.320923,-0.026245,6.0,-13.0,15.0,4843.0,2319.0,6124.0,-26.0,112.0,-82.0,25.0,130.0,-47.0,0.594385,0.269301,0.757657,11246.0,4890.0,13194.0,146.0,-283.0,354.0
2867.0,2773.0,2847.0,3103.0,3007.0,0.936829,0.134949,-0.321655,-0.024719,6.0,-1.0,10.0,4914.0,2307.0,6148.0,31.0,105.0,-49.0,50.0,108.0,9.0,0.596,0.26875,0.756586,9678.0,4362.0,12110.0,149.0,-17.0,240.0
2874.0,2778.0,2846.0,3099.0,2994.0,0.936646,0.137146,-0.321472,-0.0224,15.0,-1.0,4.0,4654.0,2169.0,5982.0,-228.0,-53.0,-208.0,-51.0,29.0,-307.0,0.596067,0.271316,0.755653,8894.0,4456.0,11820.0,362.0,-20.0,96.0
2864.0,2775.0,2839.0,3094.0,2993.0,0.936218,0.138916,-0.32196,-0.021484,15.0,-6.0,3.0,4683.0,2301.0,6064.0,-206.0,56.0,-112.0,-97.0,108.0,-192.0,0.596881,0.273946,0.75401,9612.0,5554.0,12674.0,362.0,-116.0,76.0
2865.0,2780.0,2831.0,3115.0,3019.0,0.935303,0.140869,-0.323975,-0.020569,4.0,-11.0,3.0,4848.0,2344.0,6165.0,-69.0,76.0,17.0,-68.0,77.0,-7.0,0.600234,0.276838,0.750411,10514.0,4200.0,12520.0,107.0,-233.0,78.0
2879.0,2787.0,2847.0,3101.0,3003.0,0.934814,0.140869,-0.325378,-0.019897,2.0,-11.0,6.0,5093.0,2197.0,6207.0,155.0,-66.0,74.0,80.0,-101.0,130.0,0.602731,0.276321,0.748559,11850.0,3420.0,12690.0,66.0,-235.0,144.0
2867.0,2770.0,2858.0,3090.0,2998.0,0.934265,0.140259,-0.327393,-0.017395,-1.0,-3.0,11.0,5173.0,2207.0,6097.0,201.0,-33.0,-16.0,169.0,-52.0,101.0,0.606863,0.273468,0.746296,9982.0,4356.0,11552.0,0.0,-54.0,274.0
2863.0,2771.0,2835.0,3095.0,2991.0,0.934204,0.139465,-0.32782,-0.01593,-3.0,-1.0,13.0,5109.0,2161.0,5993.0,127.0,-59.0,-118.0,176.0,-42.0,-26.0,0.608058,0.271023,0.746075,9758.0,4114.0,11428.0,-49.0,-12.0,310.0
2874.0,2782.0,2839.0,3089.0,3015.0,0.934265,0.138184,-0.328369,-0.013,0.0,-3.0,12.0,4808.0,2028.0,5758.0,-188.0,-157.0,-354.0,81.0,-40.0,-420.0,0.609975,0.266738,0.746099,8888.0,3584.0,11006.0,14.0,-52.0,294.0
2877.0,2771.0,2831.0,3091.0,3011.0,0.934082,0.137817,-0.329163,-0.011536,1.0,-6.0,12.0,4773.0,2062.0,5776.0,-238.0,-109.0,-329.0,24.0,4.0,-419.0,0.61175,0.26506,0.745301,9506.0,4566.0,11820.0,43.0,-132.0,285.0
2867.0,2767.0,2837.0,3103.0,2999.0,0.933533,0.13678,-0.331055,-0.010071,-8.0,-9.0,6.0,4888.0,2386.0,5980.0,-152.0,239.0,-108.0,-68.0,273.0,-111.0,0.615346,0.262045,0.743279,10514.0,5950.0,12776.0,-165.0,-196.0,145.0
2879.0,2771.0,2855.0,3089.0,3015.0,0.933472,0.135498,-0.331909,-0.010681,-17.0,-7.0,0.0,5095.0,2570.0,6133.0,42.0,439.0,46.0,-26.0,406.0,174.0,0.616761,0.260058,0.74296,11554.0,6134.0,13180.0,-369.0,-143.0,7.0
2871.0,2781.0,2830.0,3095.0,3019.0,0.934326,0.13031,-0.33136,-0.014954,-36.0,7.0,-15.0,5502.0,2684.0,6282.0,461.0,608.0,167.0,219.0,495.0,562.0,0.615299,0.253414,0.746409,12212.0,5394.0,12742.0,-803.0,171.0,-323.0
2869.0,2781.0,2842.0,3087.0,3007.0,0.935364,0.126404,-0.329712,-0.018616,-45.0,17.0,-21.0,5805.0,2625.0,6345.0,790.0,587.0,196.0,467.0,430.0,776.0,0.612095,0.248743,0.750564,13540.0,4784.0,13164.0,-1025.0,392.0,-466.0
2871.0,2785.0,2854.0,3103.0,3007.0,0.938843,0.116333,-0.322815,-0.027588,-55.0,28.0,-27.0,5048.0,1945.0,5507.0,135.0,9.0,-755.0,568.0,143.0,-494.0,0.599726,0.236248,0.764444,5602.0,682.0,7040.0,-1259.0,649.0,-618.0
2879.0,2778.0,2839.0,3094.0,3015.0,0.940002,0.111328,-0.320801,-0.031982,-45.0,7.0,-24.0,4450.0,1222.0,4999.0,-432.0,-660.0,-1303.0,460.0,-339.0,-1411.0,0.595986,0.229817,0.76932,5772.0,-2068.0,7512.0,-1027.0,167.0,-534.0
2867.0,2779.0,2859.0,3099.0,3019.0,0.939087,0.106018,-0.32489,-0.036621,-5.0,-31.0,-11.0,4363.0,550.0,5142.0,-572.0,-1276.0,-1136.0,252.0,-966.0,-1499.0,0.602435,0.222916,0.766432,9946.0,1112.0,12418.0,-105.0,-708.0,-233.0
2867.0,2787.0,2838.0,3115.0,3003.0,0.937561,0.106079,-0.328979,-0.038025,3.0,-39.0,-12.0,4792.0,850.0,5755.0,-195.0,-984.0,-479.0,145.0,-848.0,-703.0,0.608809,0.22393,0.760986,12642.0,3980.0,15604.0,79.0,-878.0,-252.0
2871.0,2790.0,2874.0,3102.0,3023.0,0.934631,0.107056,-0.336304,-0.042847,-5.0,-26.0,-22.0,6150.0,1814.0,7037.0,1075.0,-61.0,886.0,262.0,-374.0,1317.0,0.619466,0.228934,0.750811,16238.0,6648.0,16668.0,-113.0,-573.0,-500.0
2883.0,2785.0,2865.0,3117.0,3023.0,0.933716,0.106995,-0.337769,-0.051453,-23.0,-1.0,-34.0,5610.0,2489.0,6506.0,533.0,567.0,370.0,184.0,400.0,740.0,0.619749,0.234563,0.748937,4928.0,5630.0,8274.0,-508.0,-14.0,-772.0
2889.0,2797.0,2854.0,3111.0,3023.0,0.933655,0.105469,-0.337463,-0.056641,-32.0,-13.0,-30.0,4044.0,2228.0,5491.0,-1020.0,301.0,-652.0,-352.0,576.0,-1048.0,0.618201,0.235171,0.749914,-1218.0,2408.0,5644.0,-715.0,-295.0,-686.0
2891.0,2800.0,2887.0,3123.0,3029.0,0.931152,0.09845,-0.345093,-0.063904,-35.0,-55.0,-3.0,3901.0,1639.0,5568.0,-1260.0,-224.0,-513.0,-624.0,89.0,-1225.0,0.630085,0.227449,0.742347,10208.0,1248.0,12380.0,-792.0,-1241.0,-61.0
2886.0,2810.0,2871.0,3119.0,3039.0,0.929321,0.094116,-0.351135,-0.064514,-24.0,-53.0,11.0,4513.0,1427.0,5795.0,-733.0,-377.0,-231.0,-412.0,-200.0,-722.0,0.640491,0.220235,0.735646,13502.0,2002.0,13358.0,-535.0,-1213.0,257.0
2891.0,2811.0,2883.0,3152.0,3031.0,0.926147,0.089355,-0.361206,-0.061523,-3.0,-33.0,22.0,5371.0,1744.0,6238.0,-19.0,24.0,314.0,-226.0,-11.0,219.0,0.658065,0.209958,0.72308,10916.0,5074.0,12696.0,-50.0,-740.0,512.0
2895.0,2814.0,2869.0,3134.0,3037.0,0.925049,0.088684,-0.364502,-0.059875,-1.0,-28.0,16.0,5259.0,1967.0,6161.0,-178.0,265.0,274.0,-304.0,257.0,133.0,0.663744,0.207724,0.718574,9634.0,4806.0,12044.0,-7.0,-627.0,386.0
2914.0,2819.0,2894.0,3143.0,3031.0,0.922974,0.088745,-0.369873,-0.057983,7.0,-21.0,5.0,5462.0,2009.0,6123.0,-46.0,315.0,302.0,-229.0,279.0,248.0,0.672475,0.206712,0.710561,11730.0,3690.0,12560.0,170.0,-465.0,119.0
2895.0,2815.0,2879.0,3139.0,3023.0,0.92218,0.090332,-0.371643,-0.057617,17.0,-14.0,-3.0,5278.0,1881.0,5984.0,-251.0,165.0,188.0,-304.0,181.0,-1.0,0.675034,0.209431,0.707458,8932.0,2866.0,10792.0,399.0,-317.0,-65.0
2915.0,2814.0,2899.0,3126.0,3043.0,0.919922,0.09729,-0.375488,-0.056824,38.0,-21.0,-7.0,5061.0,1354.0,6036.0,-507.0,-461.0,309.0,-592.0,-401.0,-230.0,0.679783,0.221672,0.699028,8924.0,476.0,13012.0,871.0,-472.0,-153.0
2911.0,2822.0,2891.0,3155.0,3051.0,0.918701,0.102112,-0.377502,-0.054749,52.0,-22.0,1.0,4716.0,1160.0,6099.0,-874.0,-715.0,413.0,-927.0,-600.0,-473.0,0.682443,0.228956,0.694074,7042.0,1692.0,12376.0,1206.0,-497.0,28.0
2927.0,2815.0,2896.0,3135.0,3035.0,0.915955,0.111267,-0.382446,-0.048706,34.0,-20.0,13.0,5070.0,1973.0,6505.0,-580.0,-1.0,912.0,-1056.0,-51.0,222.0,0.689768,0.241086,0.6827,13478.0,7730.0,14516.0,781.0,-439.0,320.0
2935.0,2819.0,2896.0,3135.0,3054.0,0.915344,0.11322,-0.383545,-0.046692,14.0,-4.0,12.0,5654.0,2312.0,6504.0,-11.0,320.0,932.0,-672.0,152.0,704.0,0.691578,0.243088,0.68011,14632.0,6394.0,12332.0,324.0,-71.0,281.0
2933.0,2823.0,2909.0,3155.0,3055.0,0.916748,0.113403,-0.380432,-0.04425,-2.0,32.0,4.0,5968.0,2159.0,5463.0,336.0,179.0,-146.0,339.0,142.0,174.0,0.687485,0.241593,0.684796,10682.0,2788.0,5826.0,-24.0,751.0,114.0
2947.0,2815.0,2901.0,3147.0,3055.0,0.917908,0.113586,-0.377563,-0.04364,-1.0,28.0,-1.0,5433.0,1930.0,4834.0,-163.0,-48.0,-810.0,453.0,122.0,-681.0,0.683223,0.241478,0.689003,7346.0,2314.0,6996.0,-1.0,654.0,-2.0
2943.0,2825.0,2896.0,3151.0,3047.0,0.918884,0.115356,-0.374817,-0.042175,20.0,-2.0,4.0,4406.0,1124.0,4456.0,-1157.0,-871.0,-1215.0,28.0,-435.0,-1839.0,0.679096,0.243614,0.692332,7380.0,708.0,8566.0,480.0,-32.0,98.0
2941.0,2823.0,2899.0,3143.0,3051.0,0.918213,0.117676,-0.376038,-0.039551,31.0,-8.0,12.0,4679.0,1203.0,4591.0,-901.0,-810.0,-1056.0,108.0,-443.0,-1540.0,0.681257,0.245848,0.689427,11388.0,3526.0,10314.0,717.0,-183.0,289.0
2939.0,2826.0,2903.0,3151.0,3059.0,0.917114,0.12262,-0.377869,-0.032959,26.0,3.0,20.0,5414.0,1658.0,4684.0,-197.0,-388.0,-922.0,518.0,-160.0,-862.0,0.685015,0.249821,0.684365,13070.0,4638.0,9502.0,612.0,91.0,460.0
2942.0,2823.0,2901.0,3143.0,3055.0,0.917053,0.124573,-0.377625,-0.02948,23.0,13.0,19.0,5813.0,1843.0,4750.0,199.0,-211.0,-851.0,745.0,-58.0,-498.0,0.685259,0.250744,0.683737,14020.0,4760.0,10012.0,532.0,309.0,438.0
2943.0,2821.0,2911.0,3155.0,3057.0,0.918579,0.128235,-0.372986,-0.024963,15.0,36.0,0.0,6264.0,2033.0,4722.0,703.0,-49.0,-921.0,1145.0,53.0,-169.0,0.678832,0.25421,0.688848,12664.0,4796.0,9610.0,353.0,846.0,3.0
2943.0,2819.0,2903.0,3139.0,3057.0,0.920044,0.130371,-0.36853,-0.024658,11.0,43.0,-11.0,6043.0,2056.0,4727.0,540.0,-58.0,-960.0,1052.0,80.0,-318.0,0.671699,0.258069,0.694278,10134.0,3814.0,9412.0,269.0,1005.0,-249.0
2942.0,2819.0,2899.0,3143.0,3051.0,0.922852,0.133606,-0.360291,-0.024963,9.0,26.0,-7.0,5239.0,1805.0,4769.0,-153.0,-362.0,-1003.0,578.0,-97.0,-903.0,0.658319,0.264585,0.704618,9806.0,3328.0,10230.0,216.0,607.0,-149.0
2949.0,2827.0,2899.0,3155.0,3055.0,0.923767,0.134521,-0.357666,-0.024231,8.0,24.0,1.0,5241.0,1838.0,4911.0,-118.0,-339.0,-888.0,522.0,-104.0,-795.0,0.654281,0.265866,0.707912,10498.0,4152.0,10688.0,186.0,550.0,29.0
2937.0,2821.0,2898.0,3159.0,3055.0,0.925598,0.134644,-0.353027,-0.02063,0.0,19.0,18.0,5077.0,2019.0,5154.0,-231.0,-142.0,-698.0,294.0,57.0,-685.0,0.647968,0.263817,0.7144,9822.0,4262.0,10966.0,4.0,452.0,414.0
2949.0,2829.0,2913.0,3143.0,3055.0,0.926453,0.133484,-0.351379,-0.017944,-4.0,15.0,23.0,4876.0,2092.0,5210.0,-418.0,-37.0,-666.0,124.0,173.0,-757.0,0.646282,0.259944,0.717351,8228.0,4674.0,10662.0,-89.0,365.0,544.0
2943.0,2815.0,2903.0,3119.0,3071.0,0.927185,0.130676,-0.350708,-0.015442,-10.0,-12.0,6.0,3929.0,1834.0,5021.0,-1365.0,-239.0,-875.0,-440.0,136.0,-1572.0,0.646307,0.253153,0.719838,5160.0,1564.0,9182.0,-213.0,-272.0,148.0
2949.0,2827.0,2903.0,3151.0,3056.0,0.926331,0.1297,-0.353271,-0.016296,-4.0,-32.0,-5.0,3714.0,1361.0,4878.0,-1612.0,-701.0,-993.0,-511.0,-253.0,-1936.0,0.650265,0.251804,0.716731,6542.0,-220.0,8970.0,-79.0,-714.0,-112.0
2943.0,2830.0,2911.0,3138.0,3051.0,0.921631,0.131226,-0.364624,-0.020081,11.0,-71.0,-19.0,3486.0,1006.0,4534.0,-1976.0,-1095.0,-1197.0,-573.0,-522.0,-2436.0,0.666827,0.256527,0.699636,7178.0,2164.0,8218.0,257.0,-1610.0,-417.0
2942.0,2818.0,2901.0,3151.0,3059.0,0.91333,0.134766,-0.38324,-0.027283,9.0,-90.0,-28.0,4211.0,1039.0,4654.0,-1463.0,-1148.0,-833.0,-380.0,-692.0,-1878.0,0.692695,0.267083,0.669882,10670.0,1922.0,10360.0,209.0,-2051.0,-625.0
2933.0,2791.0,2896.0,3135.0,3059.0,0.908997,0.136292,-0.392578,-0.031067,9.0,-88.0,-26.0,4444.0,1134.0,4917.0,-1333.0,-1095.0,-445.0,-542.0,-734.0,-1529.0,0.705236,0.272169,0.654547,10326.0,3292.0,11456.0,229.0,-2013.0,-577.0
2907.0,2812.0,2895.0,3135.0,3047.0,0.901733,0.138,-0.408081,-0.035583,0.0,-64.0,-1.0,5179.0,1883.0,5622.0,-769.0,-393.0,470.0,-842.0,-344.0,-372.0,0.72614,0.277921,0.628815,14062.0,6402.0,12088.0,4.0,-1462.0,-3.0
2899.0,2815.0,2889.0,3131.0,3027.0,0.899597,0.137512,-0.412964,-0.035339,-3.0,-32.0,13.0,6311.0,2543.0,5775.0,303.0,277.0,687.0,-332.0,62.0,725.0,0.733283,0.276599,0.621075,20236.0,9108.0,12490.0,-62.0,-720.0,305.0
2879.0,2781.0,2864.0,3089.0,3007.0,0.902832,0.132385,-0.407837,-0.031738,-38.0,70.0,27.0,7266.0,4116.0,5286.0,1302.0,1945.0,106.0,688.0,1635.0,1530.0,0.728013,0.264931,0.632256,14018.0,12566.0,7700.0,-859.0,1618.0,620.0
2871.0,2774.0,2830.0,3071.0,3006.0,0.90802,0.126892,-0.397949,-0.031006,-66.0,102.0,22.0,6991.0,4406.0,4889.0,1135.0,2316.0,-443.0,993.0,2149.0,1113.0,0.714823,0.255119,0.650997,10272.0,9696.0,7856.0,-1494.0,2353.0,526.0
2867.0,2777.0,2821.0,3067.0,2992.0,0.921448,0.105225,-0.372314,-0.034729,-130.0,78.0,17.0,4256.0,3825.0,5218.0,-1304.0,2024.0,-521.0,-607.0,2247.0,-805.0,0.678828,0.219778,0.700582,2698.0,1880.0,13706.0,-2968.0,1806.0,401.0
2869.0,2771.0,2822.0,3063.0,2979.0,0.924927,0.088806,-0.367615,-0.037292,-122.0,18.0,25.0,4800.0,1939.0,5505.0,-716.0,368.0,-342.0,-284.0,504.0,-655.0,0.67341,0.191697,0.713853,14066.0,-8522.0,11324.0,-2792.0,425.0,581.0
2864.0,2771.0,2819.0,3067.0,2995.0,0.926514,0.072693,-0.367859,-0.030151,22.0,6.0,36.0,5477.0,-926.0,4980.0,-71.0,-2211.0,-907.0,565.0,-2073.0,-1046.0,0.677269,0.156885,0.718732,10568.0,-3714.0,10000.0,516.0,158.0,836.0
2871.0,2769.0,2815.0,3071.0,3003.0,0.924805,0.082031,-0.371033,-0.019104,57.0,-19.0,21.0,5281.0,600.0,5567.0,-315.0,-759.0,-259.0,-30.0,-682.0,-525.0,0.683131,0.165902,0.711234,11186.0,6898.0,13838.0,1326.0,-422.0,482.0
2871.0,2775.0,2807.0,3061.0,2995.0,0.923767,0.087952,-0.372375,-0.015625,46.0,-11.0,13.0,5519.0,1695.0,6113.0,-94.0,268.0,319.0,-298.0,224.0,207.0,0.685228,0.17413,0.707191,12454.0,10156.0,15626.0,1063.0,-242.0,313.0
2879.0,2767.0,2813.0,3067.0,2995.0,0.923035,0.093628,-0.372803,-0.013672,-1.0,-6.0,5.0,5763.0,2867.0,6579.0,146.0,1367.0,808.0,-513.0,1197.0,919.0,0.68566,0.183037,0.704432,12126.0,6502.0,13078.0,-21.0,-126.0,128.0
2869.0,2768.0,2811.0,3071.0,3003.0,0.922852,0.092529,-0.373657,-0.013733,-13.0,-8.0,6.0,5845.0,2617.0,6342.0,216.0,1133.0,577.0,-293.0,1000.0,759.0,0.687119,0.181044,0.703662,12310.0,3258.0,11014.0,-290.0,-181.0,159.0
2863.0,2775.0,2821.0,3071.0,3007.0,0.921997,0.090149,-0.376343,-0.012878,-5.0,-8.0,6.0,6139.0,2048.0,5880.0,472.0,606.0,141.0,213.0,530.0,531.0,0.691652,0.175927,0.700484,12876.0,2990.0,10574.0,-99.0,-165.0,152.0
2866.0,2771.0,2821.0,3071.0,2993.0,0.921631,0.089417,-0.37738,-0.012573,-6.0,-6.0,4.0,6134.0,1882.0,5664.0,453.0,454.0,-63.0,347.0,415.0,349.0,0.693362,0.174308,0.69915,12124.0,2810.0,10052.0,-117.0,-119.0,110.0
2871.0,2775.0,2815.0,3071.0,2999.0,0.921204,0.086731,-0.379089,-0.012451,-15.0,-5.0,5.0,6040.0,1657.0,5414.0,336.0,270.0,-300.0,437.0,281.0,70.0,0.696277,0.169234,0.69754,11672.0,2868.0,10270.0,-321.0,-101.0,120.0
2866.0,2771.0,2830.0,3071.0,3003.0,0.921082,0.084534,-0.379883,-0.012695,-19.0,-6.0,5.0,5882.0,1601.0,5318.0,166.0,246.0,-392.0,383.0,285.0,-116.0,0.69766,0.16537,0.697096,10600.0,2840.0,9992.0,-426.0,-136.0,130.0
2875.0,2769.0,2801.0,3095.0,3003.0,0.920227,0.078125,-0.383301,-0.013123,-26.0,-22.0,13.0,5379.0,1157.0,5097.0,-383.0,-103.0,-587.0,148.0,8.0,-692.0,0.703397,0.153845,0.693967,9228.0,636.0,9562.0,-594.0,-492.0,304.0
2871.0,2768.0,2823.0,3071.0,3003.0,0.919128,0.074097,-0.386658,-0.012451,-26.0,-32.0,19.0,5266.0,1040.0,5080.0,-541.0,-154.0,-572.0,33.0,-36.0,-800.0,0.708931,0.145837,0.689958,10452.0,1750.0,10382.0,-583.0,-729.0,447.0
2869.0,2773.0,2826.0,3095.0,2999.0,0.917053,0.066223,-0.392944,-0.011841,-29.0,-17.0,10.0,6411.0,1100.0,5871.0,519.0,28.0,281.0,154.0,-42.0,568.0,0.719133,0.130766,0.682336,17722.0,1892.0,14914.0,-664.0,-388.0,249.0
2867.0,2773.0,2831.0,3099.0,3007.0,0.917175,0.062683,-0.39325,-0.012573,-26.0,7.0,1.0,7263.0,908.0,6245.0,1366.0,-114.0,651.0,475.0,-280.0,1413.0,0.719781,0.124872,0.682794,19592.0,366.0,14264.0,-592.0,174.0,23.0
2878.0,2782.0,2839.0,3099.0,3007.0,0.920654,0.060547,-0.385315,-0.014832,-3.0,60.0,-18.0,8521.0,760.0,6598.0,2723.0,-246.0,898.0,1279.0,-535.0,2521.0,0.707688,0.122915,0.695691,19092.0,2550.0,13578.0,-50.0,1392.0,-411.0
2875.0,2787.0,2843.0,3095.0,3007.0,0.923828,0.061951,-0.377319,-0.017273,-2.0,78.0,-30.0,7951.0,1054.0,6115.0,2257.0,9.0,318.0,1390.0,-200.0,1794.0,0.695016,0.127498,0.707549,10862.0,3752.0,8024.0,-33.0,1801.0,-669.0
2879.0,2800.0,2871.0,3121.0,3023.0,0.928955,0.064453,-0.363525,-0.02655,-12.0,33.0,-46.0,4494.0,833.0,3895.0,-1010.0,-306.0,-2063.0,658.0,1.0,-2221.0,0.671975,0.139052,0.727358,-2020.0,120.0,2224.0,-274.0,756.0,-1032.0
2882.0,2799.0,2877.0,3127.0,3031.0,0.929016,0.064636,-0.362854,-0.032227,-18.0,-16.0,-43.0,3443.0,703.0,3672.0,-2045.0,-472.0,-2293.0,47.0,-26.0,-3107.0,0.670028,0.143483,0.728269,1956.0,474.0,7130.0,-393.0,-354.0,-967.0
2895.0,2815.0,2891.0,3127.0,3039.0,0.924011,0.063416,-0.374634,-0.041931,-7.0,-72.0,-30.0,4154.0,558.0,4708.0,-1474.0,-659.0,-1118.0,-294.0,-371.0,-1905.0,0.687014,0.148611,0.711183,14104.0,1718.0,14918.0,-146.0,-1636.0,-670.0
2903.0,2807.0,2891.0,3149.0,3047.0,-0.003357,-0.001648,0.330017,0.040222,5621.0,-19862.0,-30859.0,-5312.0,-2456.0,-7512.0,-5329.0,-2673.0,-6633.0,606.0,-455.0,629.0,0.002083,0.026559,-0.107285,19796.0,2324.0,16080.0,800.0,-411.0,-432.0
2909.0,2815.0,2895.0,3139.0,3035.0,0.919006,0.074341,-0.384521,-0.045288,51.0,13.0,-15.0,6898.0,1176.0,6709.0,1163.0,-228.0,1029.0,74.0,-492.0,1488.0,0.700022,0.171468,0.69324,14724.0,5110.0,15564.0,1181.0,312.0,-326.0
2910.0,2815.0,2895.0,3147.0,3051.0,0.920349,0.089783,-0.378052,-0.044189,60.0,22.0,-20.0,5542.0,1473.0,6773.0,-93.0,-154.0,1054.0,-809.0,-276.0,641.0,0.687944,0.198675,0.698011,7060.0,1546.0,14482.0,1378.0,526.0,-447.0
2933.0,2829.0,2906.0,3147.0,3051.0,0.920654,0.098206,-0.375427,-0.04187,79.0,11.0,-9.0,4830.0,1152.0,6980.0,-765.0,-586.0,1255.0,-1426.0,-644.0,230.0,0.683054,0.212265,0.698767,5120.0,854.0,15550.0,1823.0,253.0,-197.0
2938.0,2825.0,2895.0,3143.0,3058.0,0.919495,0.116272,-0.374268,-0.03064,79.0,-27.0,31.0,2716.0,1776.0,6726.0,-2863.0,-163.0,1050.0,-2780.0,51.0,-1261.0,0.681149,0.236758,0.692814,3546.0,9848.0,6270.0,1821.0,-611.0,723.0
2941.0,2817.0,2883.0,3151.0,3057.0,0.916382,0.121948,-0.380432,-0.025452,45.0,-56.0,37.0,3767.0,2587.0,6737.0,-1893.0,597.0,1159.0,-2185.0,605.0,-374.0,0.691035,0.242868,0.680803,15794.0,9978.0,13300.0,1051.0,-1260.0,858.0
2918.0,2815.0,2893.0,3143.0,3055.0,0.912476,0.123108,-0.389648,-0.018799,-3.0,-10.0,23.0,6244.0,3006.0,5863.0,456.0,1045.0,407.0,-38.0,867.0,843.0,0.706461,0.239316,0.665984,17938.0,4126.0,9132.0,-50.0,-212.0,528.0
2927.0,2819.0,2895.0,3131.0,3055.0,0.912415,0.121948,-0.390198,-0.016602,-1.0,10.0,15.0,6286.0,2367.0,5260.0,486.0,437.0,-193.0,447.0,403.0,318.0,0.707995,0.23549,0.66565,11424.0,218.0,7170.0,-16.0,247.0,366.0
2933.0,2827.0,2896.0,3167.0,3025.0,0.912354,0.122559,-0.390564,-0.009094,31.0,-14.0,33.0,4429.0,1067.0,4355.0,-1390.0,-823.0,-1091.0,-120.0,-405.0,-1902.0,0.710436,0.230737,0.664911,1690.0,-1036.0,6596.0,720.0,-303.0,763.0
2938.0,2837.0,2891.0,3151.0,3059.0,0.910156,0.124146,-0.395142,-0.002075,40.0,-49.0,56.0,3986.0,1226.0,4185.0,-1902.0,-638.0,-1195.0,-387.0,-156.0,-2297.0,0.718766,0.227624,0.65684,7430.0,5054.0,7932.0,936.0,-1101.0,1294.0
2917.0,2827.0,2901.0,3147.0,3051.0,0.904419,0.126099,-0.407349,0.01062,18.0,-31.0,44.0,5641.0,1858.0,4284.0,-417.0,60.0,-928.0,395.0,312.0,-885.0,0.739506,0.21944,0.636253,15992.0,3162.0,7770.0,417.0,-704.0,1008.0
2931.0,2839.0,2898.0,3119.0,3047.0,0.9021,0.126343,-0.41217,0.018066,14.0,1.0,14.0,6635.0,1511.0,4177.0,505.0,-234.0,-969.0,1081.0,-27.0,-280.0,0.748203,0.213055,0.628263,16156.0,3220.0,8374.0,333.0,32.0,337.0
2913.0,2831.0,2881.0,3147.0,3047.0,0.902344,0.127319,-0.411255,0.018738,5.0,23.0,-7.0,7325.0,1812.0,4221.0,1205.0,55.0,-933.0,1476.0,196.0,324.0,0.746958,0.21436,0.629235,18976.0,5942.0,8734.0,120.0,528.0,-149.0
2915.0,2832.0,2907.0,3149.0,3043.0,0.907166,0.127747,-0.400696,0.012512,-14.0,59.0,-36.0,6830.0,981.0,3867.0,848.0,-835.0,-1426.0,1711.0,-530.0,-487.0,0.730192,0.221747,0.64623,8248.0,-3120.0,6134.0,-320.0,1357.0,-819.0
2927.0,2834.0,2887.0,3169.0,3056.0,0.909729,0.126892,-0.395142,0.010864,-5.0,41.0,-18.0,5410.0,458.0,3699.0,-502.0,-1362.0,-1670.0,1014.0,-877.0,-1759.0,0.721701,0.222289,0.655486,1538.0,-1194.0,6570.0,-109.0,951.0,-403.0
2909.0,2832.0,2880.0,3143.0,3063.0,0.910095,0.125977,-0.394531,0.010742,-3.0,-36.0,9.0,3310.0,568.0,3811.0,-2595.0,-1240.0,-1570.0,-515.0,-619.0,-3175.0,0.720829,0.220825,0.656864,2778.0,1404.0,7828.0,-50.0,-807.0,228.0
2943.0,2823.0,2905.0,3155.0,3071.0,0.907471,0.124817,-0.401001,0.011536,-2.0,-72.0,19.0,3030.0,496.0,3831.0,-2955.0,-1283.0,-1471.0,-782.0,-661.0,-3390.0,0.730673,0.217284,0.647255,5074.0,420.0,7734.0,-33.0,-1633.0,441.0
2946.0,2823.0,2887.0,3134.0,3053.0,0.897095,0.123657,-0.423828,0.014099,15.0,-110.0,13.0,4484.0,105.0,3970.0,-1773.0,-1614.0,-1027.0,-147.0,-1182.0,-2319.0,0.763915,0.209913,0.610056,16362.0,-1590.0,9236.0,358.0,-2502.0,320.0
2925.0,2827.0,2896.0,3159.0,3047.0,0.88562,0.130981,-0.445251,0.014404,41.0,-89.0,-20.0,5968.0,993.0,4690.0,-523.0,-802.0,27.0,-222.0,-733.0,-574.0,0.792421,0.219173,0.569125,15970.0,8584.0,12686.0,949.0,-2021.0,-437.0
2911.0,2834.0,2894.0,3135.0,3051.0,0.881348,0.137207,-0.451965,0.01062,24.0,-65.0,-39.0,6675.0,2213.0,5466.0,124.0,310.0,929.0,-708.0,51.0,685.0,0.799591,0.232254,0.553788,17336.0,11544.0,15828.0,570.0,-1484.0,-892.0
2907.0,2815.0,2879.0,3119.0,3033.0,0.879517,0.142639,-0.453918,-0.000488,-14.0,9.0,-36.0,7844.0,2912.0,5325.0,1304.0,852.0,842.0,-15.0,436.0,1715.0,0.798318,0.25135,0.547162,19518.0,5910.0,7332.0,-305.0,213.0,-814.0
2891.0,2795.0,2887.0,3107.0,3007.0,0.881226,0.142334,-0.450684,-0.002258,-15.0,48.0,-8.0,8146.0,3230.0,4691.0,1644.0,1158.0,159.0,705.0,853.0,1685.0,0.793665,0.252892,0.553189,17182.0,10194.0,6400.0,-331.0,1121.0,-172.0
2871.0,2781.0,2831.0,3069.0,3011.0,0.893555,0.133423,-0.42865,-0.005066,-87.0,127.0,5.0,7157.0,4511.0,3767.0,892.0,2522.0,-1122.0,1159.0,2584.0,624.0,0.764692,0.242784,0.596923,7994.0,8188.0,3902.0,-1972.0,2929.0,128.0
2870.0,2767.0,2818.0,3063.0,2992.0,0.901794,0.122009,-0.414429,-0.008362,-117.0,129.0,8.0,5597.0,3933.0,3591.0,-509.0,2073.0,-1542.0,643.0,2398.0,-875.0,0.745419,0.226985,0.626666,1410.0,4610.0,6700.0,-2669.0,2961.0,205.0
2876.0,2767.0,2806.0,3067.0,2975.0,0.913025,0.087463,-0.398071,-0.015625,-136.0,15.0,30.0,5064.0,1201.0,4999.0,-868.0,-209.0,-471.0,-240.0,-51.0,-979.0,0.724165,0.172152,0.667748,15190.0,-10730.0,11586.0,-3111.0,352.0,700.0
2869.0,2769.0,2807.0,3071.0,2987.0,0.914185,0.07312,-0.398376,-0.014099,-64.0,7.0,37.0,5499.0,-607.0,4661.0,-450.0,-1794.0,-843.0,367.0,-1633.0,-1153.0,0.726317,0.144924,0.671882,13122.0,-9908.0,7764.0,-1462.0,176.0,865.0
2859.0,2765.0,2803.0,3062.0,2995.0,0.9151,0.069885,-0.397034,-0.007324,28.0,-1.0,10.0,5429.0,-499.0,5142.0,-515.0,-1594.0,-387.0,-3.0,-1495.0,-848.0,0.725627,0.13372,0.674942,10604.0,1258.0,12736.0,642.0,-17.0,232.0
2865.0,2773.0,2813.0,3063.0,3003.0,0.914673,0.073853,-0.397278,-0.00531,39.0,-7.0,0.0,5381.0,186.0,5483.0,-566.0,-955.0,-33.0,-316.0,-901.0,-566.0,0.725974,0.139321,0.673371,10380.0,5156.0,12900.0,912.0,-154.0,8.0
2864.0,2769.0,2823.0,3053.0,2999.0,0.913879,0.083801,-0.397095,-0.004883,23.0,-6.0,-11.0,5796.0,1733.0,6312.0,-142.0,446.0,819.0,-717.0,328.0,516.0,0.724975,0.157046,0.670493,13712.0,6326.0,14582.0,534.0,-115.0,-234.0
2869.0,2762.0,2803.0,3063.0,2991.0,0.913574,0.086182,-0.397278,-0.005249,9.0,-6.0,-5.0,6021.0,2053.0,6384.0,81.0,728.0,900.0,-641.0,572.0,778.0,0.724981,0.161637,0.669388,13260.0,5830.0,12764.0,223.0,-117.0,-101.0
2880.0,2771.0,2811.0,3071.0,2991.0,0.912598,0.085815,-0.399658,-0.006104,-14.0,-17.0,5.0,6047.0,2156.0,5933.0,79.0,832.0,478.0,-343.0,740.0,510.0,0.728407,0.161509,0.665781,12398.0,3050.0,10122.0,-316.0,-384.0,120.0
2869.0,2769.0,2821.0,3070.0,3003.0,0.911621,0.083557,-0.402344,-0.005981,-16.0,-22.0,11.0,6085.0,1840.0,5602.0,83.0,552.0,177.0,-104.0,511.0,264.0,0.732571,0.157158,0.662226,12284.0,1798.0,9228.0,-360.0,-499.0,270.0
2864.0,2763.0,2819.0,3088.0,3005.0,0.909546,0.07959,-0.407837,-0.004578,-10.0,-18.0,10.0,6232.0,1542.0,5175.0,160.0,325.0,-187.0,227.0,335.0,44.0,0.741164,0.148515,0.654629,14104.0,2372.0,9906.0,-220.0,-409.0,241.0
2867.0,2762.0,2823.0,3071.0,3003.0,0.909058,0.078491,-0.40918,-0.004456,-8.0,-4.0,2.0,6534.0,1511.0,5151.0,445.0,312.0,-196.0,424.0,303.0,248.0,0.743236,0.146352,0.652817,14684.0,2940.0,10092.0,-173.0,-83.0,65.0
2865.0,2759.0,2815.0,3071.0,2987.0,0.909973,0.077637,-0.407166,-0.006775,-9.0,16.0,-14.0,6431.0,1265.0,4828.0,369.0,62.0,-548.0,650.0,107.0,-77.0,0.739967,0.146812,0.656286,12150.0,1202.0,8602.0,-194.0,380.0,-305.0
2869.0,2770.0,2818.0,3088.0,3002.0,0.910828,0.077271,-0.405334,-0.008423,-8.0,19.0,-14.0,6427.0,991.0,4700.0,388.0,-218.0,-701.0,789.0,-151.0,-208.0,0.737078,0.147588,0.659411,13166.0,286.0,8778.0,-169.0,446.0,-315.0
2869.0,2766.0,2815.0,3071.0,3011.0,0.912964,0.076294,-0.400635,-0.009521,-3.0,27.0,-4.0,6374.0,618.0,4614.0,393.0,-585.0,-852.0,916.0,-496.0,-367.0,0.730077,0.146937,0.667265,11896.0,594.0,8992.0,-48.0,637.0,-74.0
2865.0,2766.0,2807.0,3071.0,2993.0,0.914307,0.075989,-0.397705,-0.009094,1.0,29.0,1.0,6077.0,418.0,4469.0,130.0,-779.0,-1036.0,877.0,-643.0,-715.0,0.725867,0.146188,0.672096,10102.0,-474.0,7912.0,24.0,667.0,23.0
2867.0,2779.0,2815.0,3071.0,2989.0,0.916077,0.077209,-0.393433,-0.007019,9.0,12.0,2.0,5242.0,811.0,4412.0,-654.0,-393.0,-1146.0,394.0,-184.0,-1306.0,0.719745,0.146983,0.678495,8462.0,4032.0,9570.0,228.0,276.0,66.0
2870.0,2768.0,2841.0,3069.0,3007.0,0.916321,0.078308,-0.3927,-0.006836,3.0,1.0,-1.0,5130.0,1180.0,4679.0,-756.0,-39.0,-886.0,117.0,139.0,-1150.0,0.718608,0.14888,0.679345,9996.0,4448.0,11112.0,79.0,42.0,-1.0
2869.0,2775.0,2811.0,3095.0,3007.0,0.916565,0.077698,-0.392151,-0.008606,-14.0,1.0,-5.0,5489.0,1595.0,5315.0,-388.0,372.0,-258.0,-99.0,432.0,-398.0,0.717526,0.14918,0.680346,12494.0,3766.0,12434.0,-304.0,43.0,-109.0
2875.0,2771.0,2819.0,3071.0,3019.0,0.917053,0.076294,-0.391296,-0.010132,-18.0,8.0,-7.0,5694.0,1583.0,5516.0,-172.0,371.0,-72.0,-82.0,389.0,-117.0,0.716133,0.14786,0.682156,12512.0,2924.0,12060.0,-410.0,193.0,-149.0
2875.0,2775.0,2831.0,3071.0,3003.0,0.918823,0.072693,-0.387695,-0.013062,-18.0,17.0,-7.0,5811.0,1243.0,5569.0,-9.0,65.0,-73.0,43.0,74.0,-47.0,0.710548,0.143712,0.688815,11256.0,1150.0,10784.0,-395.0,412.0,-142.0
2883.0,2770.0,2831.0,3071.0,3017.0,0.919739,0.071167,-0.385742,-0.013977,-13.0,16.0,-4.0,5630.0,1000.0,5449.0,-166.0,-160.0,-221.0,45.0,-118.0,-293.0,0.707575,0.141693,0.692253,9956.0,450.0,10032.0,-282.0,368.0,-90.0
2867.0,2771.0,2823.0,3071.0,2999.0,0.92041,0.070007,-0.384338,-0.013672,4.0,-3.0,3.0,5219.0,704.0,5350.0,-561.0,-437.0,-341.0,-140.0,-347.0,-693.0,0.705584,0.13938,0.694725,9900.0,1320.0,11212.0,100.0,-61.0,74.0
2874.0,2767.0,2831.0,3071.0,3007.0,0.920044,0.070496,-0.385132,-0.012817,8.0,-10.0,5.0,5256.0,848.0,5542.0,-534.0,-295.0,-137.0,-268.0,-233.0,-513.0,0.706869,0.139591,0.693349,10924.0,2884.0,12386.0,189.0,-222.0,120.0
2875.0,2771.0,2819.0,3071.0,2999.0,0.919006,0.071716,-0.387512,-0.011902,1.0,-13.0,2.0,5495.0,1321.0,5908.0,-325.0,165.0,260.0,-418.0,156.0,-28.0,0.710545,0.14104,0.689405,11778.0,3700.0,12612.0,43.0,-296.0,67.0
2870.0,2771.0,2823.0,3071.0,3007.0,0.918457,0.071655,-0.388672,-0.011963,-4.0,-12.0,1.0,5608.0,1426.0,5967.0,-226.0,271.0,334.0,-405.0,244.0,106.0,0.712242,0.140924,0.687506,11834.0,3336.0,12156.0,-70.0,-264.0,40.0
2875.0,2768.0,2822.0,3071.0,2995.0,0.917664,0.07019,-0.390869,-0.012573,-8.0,-11.0,1.0,5639.0,1294.0,5776.0,-223.0,158.0,168.0,-280.0,153.0,-22.0,0.715608,0.138651,0.684559,11146.0,1852.0,10656.0,-169.0,-234.0,31.0
2879.0,2768.0,2815.0,3089.0,3002.0,0.917175,0.069275,-0.39209,-0.012756,-7.0,-12.0,1.0,5605.0,1188.0,5642.0,-272.0,65.0,48.0,-224.0,79.0,-153.0,0.717463,0.137078,0.68284,11000.0,1798.0,10510.0,-149.0,-265.0,44.0
2863.0,2771.0,2819.0,3071.0,2991.0,0.916016,0.067688,-0.395142,-0.012939,-5.0,-15.0,2.0,5571.0,1011.0,5448.0,-344.0,-88.0,-110.0,-154.0,-48.0,-334.0,0.72216,0.134232,0.678533,11114.0,1486.0,10408.0,-103.0,-328.0,62.0
2879.0,2775.0,2819.0,3071.0,3004.0,0.915344,0.066956,-0.396851,-0.012756,-4.0,-16.0,4.0,5593.0,962.0,5401.0,-344.0,-125.0,-137.0,-132.0,-82.0,-358.0,0.724802,0.1327,0.676044,11370.0,1730.0,10600.0,-73.0,-358.0,93.0
2875.0,2775.0,2831.0,3088.0,2999.0,0.914062,0.065918,-0.399963,-0.012146,-2.0,-11.0,4.0,5757.0,991.0,5382.0,-219.0,-75.0,-117.0,-60.0,-44.0,-248.0,0.729582,0.130222,0.671342,12054.0,2078.0,10728.0,-44.0,-247.0,95.0
2869.0,2768.0,2821.0,3071.0,2999.0,0.913635,0.065613,-0.40094,-0.011902,-2.0,-7.0,2.0,5786.0,992.0,5348.0,-202.0,-68.0,-139.0,-32.0,-37.0,-249.0,0.731064,0.129436,0.669813,11576.0,1942.0,10386.0,-29.0,-156.0,56.0
2877.0,2773.0,2832.0,3087.0,3007.0,0.913147,0.065491,-0.402039,-0.011841,0.0,-5.0,-1.0,5697.0,1009.0,5235.0,-305.0,-48.0,-237.0,-30.0,1.0,-387.0,0.73269,0.129126,0.668054,11160.0,2294.0,10272.0,18.0,-111.0,-5.0
2873.0,2766.0,2822.0,3089.0,3007.0,0.912903,0.065674,-0.402588,-0.011963,0.0,-6.0,-2.0,5685.0,1046.0,5213.0,-323.0,-15.0,-252.0,-32.0,37.0,-406.0,0.733476,0.12954,0.667145,11312.0,2250.0,10308.0,3.0,-120.0,-23.0
2881.0,2775.0,2819.0,3071.0,2999.0,0.912354,0.065613,-0.403809,-0.012329,-1.0,-6.0,-1.0,5701.0,982.0,5134.0,-321.0,-80.0,-315.0,18.0,-20.0,-455.0,0.735214,0.129681,0.665174,11478.0,1614.0,9978.0,-18.0,-117.0,-7.0
2875.0,2775.0,2839.0,3089.0,3007.0,0.912109,0.06543,-0.40448,-0.012268,-1.0,-6.0,0.0,5711.0,951.0,5098.0,-320.0,-108.0,-343.0,41.0,-45.0,-477.0,0.736255,0.129282,0.664209,11520.0,1730.0,10032.0,-3.0,-116.0,13.0
2869.0,2769.0,2827.0,3071.0,3005.0,0.911621,0.065369,-0.405579,-0.012024,0.0,-4.0,1.0,5769.0,974.0,5093.0,-275.0,-82.0,-333.0,64.0,-24.0,-434.0,0.737896,0.128936,0.662431,11820.0,2186.0,10280.0,15.0,-77.0,31.0
2871.0,2775.0,2834.0,3071.0,2993.0,0.911499,0.065369,-0.405823,-0.011902,0.0,-2.0,0.0,5825.0,1016.0,5128.0,-222.0,-39.0,-295.0,71.0,10.0,-364.0,0.738258,0.128827,0.662007,11960.0,2288.0,10452.0,1.0,-28.0,18.0
2878.0,2773.0,2831.0,3087.0,2995.0,0.911621,0.065186,-0.40564,-0.012085,-3.0,1.0,-1.0,5788.0,1052.0,5102.0,-257.0,-1.0,-324.0,67.0,53.0,-404.0,0.738004,0.128653,0.662406,11226.0,1996.0,9932.0,-53.0,34.0,-13.0
2875.0,2773.0,2831.0,3089.0,2997.0,0.911621,0.064941,-0.40564,-0.012268,-3.0,-1.0,-1.0,5768.0,1020.0,5091.0,-277.0,-31.0,-335.0,63.0,26.0,-430.0,0.737986,0.128357,0.662443,11528.0,1828.0,10210.0,-57.0,-3.0,-9.0
2867.0,2770.0,2843.0,3091.0,2995.0,0.91156,0.064514,-0.405823,-0.012268,-1.0,-1.0,0.0,5802.0,977.0,5123.0,-245.0,-68.0,-302.0,61.0,-16.0,-389.0,0.738281,0.127574,0.662238,11614.0,2024.0,10348.0,-3.0,-10.0,18.0
2879.0,2769.0,2831.0,3099.0,3007.0,0.91156,0.064575,-0.405884,-0.012146,0.0,-1.0,0.0,5811.0,975.0,5151.0,-238.0,-70.0,-273.0,45.0,-22.0,-365.0,0.738406,0.127588,0.662178,11708.0,1896.0,10466.0,14.0,-14.0,11.0
2876.0,2779.0,2806.0,3088.0,3011.0,0.911499,0.064758,-0.406006,-0.011963,1.0,-1.0,0.0,5855.0,980.0,5191.0,-195.0,-66.0,-231.0,42.0,-25.0,-305.0,0.738598,0.127768,0.661939,11844.0,1986.0,10468.0,30.0,-4.0,15.0
2879.0,2775.0,2833.0,3088.0,3003.0,0.911438,0.064819,-0.406006,-0.01178,1.0,0.0,0.0,5884.0,991.0,5212.0,-166.0,-55.0,-209.0,45.0,-19.0,-267.0,0.738571,0.127723,0.661816,11964.0,2062.0,10538.0,32.0,9.0,21.0
2875.0,2775.0,2841.0,3071.0,2999.0,0.91156,0.065063,-0.405762,-0.011353,1.0,1.0,1.0,5839.0,1023.0,5183.0,-208.0,-24.0,-241.0,39.0,17.0,-316.0,0.738275,0.127831,0.662195,11326.0,2234.0,10202.0,29.0,36.0,24.0
6230.0,-0.038574,-3.0,-5.0,-1.0,5522.0,1079.0,5628.0,-257.0,-92.0,-57.0,-140.0,-55.0,-234.0,0.705523,0.14305,0.693992,11038.0,2124.0,11034.0,-56.0,-112.0,-17.0,,,,,,,
2879.0,2787.0,2857.0,3099.0,3007.0,0.919128,0.061035,-0.387207,-0.039001,-3.0,-5.0,-1.0,5524.0,1085.0,5533.0,-267.0,-81.0,-141.0,-87.0,-36.0,-297.0,0.707025,0.142402,0.692664,11026.0,2210.0,10752.0,-53.0,-96.0,-15.0
2875.0,2789.0,2831.0,3097.0,3019.0,0.918945,0.060791,-0.387634,-0.039185,-3.0,-4.0,-1.0,5522.0,1088.0,5488.0,-275.0,-76.0,-181.0,-63.0,-27.0,-330.0,0.707665,0.142106,0.69204,11030.0,2202.0,10714.0,-50.0,-86.0,-12.0
2879.0,2787.0,2859.0,3091.0,3023.0,0.91864,0.060364,-0.388367,-0.03949,-2.0,-3.0,-1.0,5509.0,1129.0,5420.0,-297.0,-30.0,-240.0,-34.0,25.0,-380.0,0.708771,0.141578,0.690987,11006.0,2422.0,10686.0,-45.0,-67.0,-6.0
2879.0,2788.0,2846.0,3095.0,3007.0,0.918579,0.060181,-0.388611,-0.039673,-2.0,-3.0,-1.0,5506.0,1151.0,5398.0,-303.0,-7.0,-260.0,-23.0,50.0,-395.0,0.709165,0.141396,0.690721,11018.0,2426.0,10682.0,-44.0,-60.0,-2.0
2878.0,2791.0,2846.0,3107.0,3007.0,0.918335,0.059875,-0.389099,-0.039856,-2.0,-2.0,0.0,5515.0,1163.0,5365.0,-300.0,8.0,-287.0,-1.0,66.0,-409.0,0.709874,0.140987,0.689944,11064.0,2366.0,10644.0,-39.0,-42.0,5.0
2878.0,2793.0,2833.0,3095.0,2999.0,0.918274,0.059692,-0.389282,-0.039917,-2.0,-2.0,0.0,5518.0,1154.0,5344.0,-299.0,1.0,-306.0,12.0,60.0,-423.0,0.71017,0.140706,0.689717,11058.0,2234.0,10566.0,-37.0,-31.0,6.0
2878.0,2783.0,2847.0,3103.0,3015.0,0.918152,0.059387,-0.389648,-0.039917,-1.0,-2.0,0.0,5508.0,1124.0,5305.0,-314.0,-24.0,-341.0,27.0,40.0,-461.0,0.710772,0.14016,0.689243,11088.0,2182.0,10534.0,-8.0,-28.0,14.0
2881.0,2791.0,2834.0,3095.0,3019.0,0.918091,0.059387,-0.389771,-0.039856,0.0,-1.0,0.0,5528.0,1127.0,5310.0,-296.0,-20.0,-334.0,34.0,41.0,-443.0,0.710956,0.140115,0.689031,11204.0,2302.0,10704.0,6.0,-22.0,16.0
2883.0,2793.0,2847.0,3095.0,3011.0,0.91803,0.059448,-0.389954,-0.039673,0.0,-1.0,0.0,5555.0,1143.0,5331.0,-271.0,-4.0,-311.0,36.0,52.0,-407.0,0.711261,0.140092,0.688755,11206.0,2324.0,10786.0,2.0,-3.0,19.0
2875.0,2786.0,2841.0,3099.0,3007.0,0.91803,0.059387,-0.389954,-0.039612,-1.0,0.0,1.0,5568.0,1149.0,5347.0,-258.0,2.0,-295.0,33.0,55.0,-386.0,0.711273,0.139932,0.688757,11192.0,2312.0,10810.0,-10.0,4.0,23.0
2877.0,2781.0,2843.0,3091.0,3015.0,0.918091,0.059143,-0.389893,-0.039368,-1.0,0.0,1.0,5578.0,1120.0,5394.0,-248.0,-21.0,-249.0,7.0,27.0,-350.0,0.711257,0.139296,0.688926,11188.0,2112.0,10906.0,-10.0,9.0,31.0
2875.0,2787.0,2839.0,3101.0,3024.0,0.918152,0.059082,-0.389832,-0.039246,0.0,0.0,1.0,5585.0,1099.0,5421.0,-241.0,-40.0,-223.0,-7.0,6.0,-330.0,0.711212,0.139091,0.689084,11218.0,2094.0,11004.0,1.0,7.0,28.0
2879.0,2783.0,2839.0,3095.0,3007.0,0.918152,0.059021,-0.389832,-0.038879,0.0,-1.0,1.0,5615.0,1081.0,5479.0,-211.0,-55.0,-165.0,-28.0,-16.0,-271.0,0.71126,0.138693,0.689062,11330.0,2150.0,11170.0,17.0,-3.0,27.0
2879.0,2785.0,2849.0,3103.0,3014.0,0.918152,0.059021,-0.389832,-0.038757,0.0,-1.0,1.0,5631.0,1097.0,5516.0,-195.0,-38.0,-128.0,-43.0,-4.0,-232.0,0.711274,0.138598,0.689053,11340.0,2260.0,11244.0,8.0,-5.0,26.0
2877.0,2781.0,2847.0,3099.0,3015.0,0.918213,0.058716,-0.389771,-0.038574,-2.0,-1.0,1.0,5660.0,1108.0,5583.0,-166.0,-21.0,-63.0,-70.0,3.0,-164.0,0.711255,0.137897,0.689234,11362.0,2194.0,11318.0,-36.0,-9.0,31.0
2878.0,2790.0,2847.0,3091.0,3011.0,0.918213,0.058411,-0.389832,-0.038513,-3.0,-1.0,1.0,5668.0,1098.0,5594.0,-159.0,-26.0,-52.0,-73.0,-3.0,-152.0,0.711398,0.137294,0.689218,11378.0,2120.0,11242.0,-48.0,-18.0,33.0
2881.0,2783.0,2851.0,3095.0,3021.0,0.918152,0.057739,-0.390015,-0.038391,-2.0,-2.0,1.0,5678.0,1053.0,5602.0,-152.0,-60.0,-42.0,-76.0,-38.0,-145.0,0.711752,0.135973,0.689032,11460.0,2004.0,11220.0,-38.0,-33.0,31.0
2875.0,2787.0,2843.0,3099.0,3010.0,0.918152,0.057495,-0.390137,-0.038269,-2.0,-2.0,1.0,5696.0,1054.0,5606.0,-136.0,-55.0,-37.0,-68.0,-36.0,-129.0,0.712009,0.135439,0.688955,11508.0,2138.0,11254.0,-32.0,-33.0,28.0
2875.0,2790.0,2846.0,3095.0,3007.0,0.91803,0.056946,-0.390442,-0.038269,-3.0,-2.0,0.0,5705.0,1092.0,5620.0,-131.0,-9.0,-20.0,-76.0,7.0,-108.0,0.712516,0.13444,0.688555,11424.0,2310.0,11356.0,-57.0,-33.0,18.0
2871.0,2783.0,2845.0,3099.0,2999.0,0.91803,0.05658,-0.390564,-0.038391,-4.0,-2.0,0.0,5700.0,1103.0,5626.0,-138.0,6.0,-14.0,-85.0,22.0,-107.0,0.712754,0.133872,0.688511,11362.0,2214.0,11302.0,-78.0,-40.0,15.0
2875.0,2775.0,2846.0,3095.0,3023.0,0.917969,0.055542,-0.390808,-0.038574,-5.0,-3.0,1.0,5680.0,1082.0,5656.0,-162.0,0.0,17.0,-124.0,17.0,-103.0,0.713214,0.132122,0.688339,11274.0,2076.0,11402.0,-103.0,-47.0,31.0
2875.0,2783.0,2850.0,3099.0,3007.0,0.917908,0.054932,-0.390991,-0.038635,-5.0,-3.0,1.0,5645.0,1076.0,5653.0,-200.0,2.0,15.0,-149.0,23.0,-132.0,0.713543,0.131056,0.688156,11032.0,2082.0,11202.0,-105.0,-51.0,34.0
2879.0,2783.0,2834.0,3091.0,2994.0,0.917786,0.053833,-0.391479,-0.038818,-5.0,-4.0,1.0,5603.0,1052.0,5647.0,-249.0,-6.0,13.0,-181.0,21.0,-169.0,0.714409,0.129208,0.687683,11092.0,1982.0,11240.0,-97.0,-78.0,29.0
2883.0,2783.0,2850.0,3099.0,3005.0,0.917664,0.053284,-0.391785,-0.038879,-4.0,-4.0,1.0,5584.0,1042.0,5631.0,-272.0,-8.0,0.0,-187.0,22.0,-195.0,0.71491,0.128258,0.687284,11044.0,2072.0,11186.0,-82.0,-86.0,31.0
2878.0,2787.0,2850.0,3102.0,3023.0,0.917358,0.052368,-0.392578,-0.039062,-4.0,-5.0,1.0,5551.0,1029.0,5589.0,-315.0,-9.0,-32.0,-194.0,28.0,-248.0,0.716178,0.126751,0.686212,11050.0,1868.0,10948.0,-84.0,-112.0,23.0
2887.0,2783.0,2845.0,3111.0,3019.0,0.917175,0.05188,-0.393127,-0.039124,-4.0,-6.0,1.0,5527.0,1004.0,5543.0,-347.0,-27.0,-72.0,-187.0,16.0,-301.0,0.717074,0.125927,0.685501,10898.0,1912.0,10798.0,-73.0,-131.0,28.0
2875.0,2787.0,2826.0,3099.0,3033.0,0.916565,0.051086,-0.394592,-0.039246,-3.0,-8.0,0.0,5519.0,992.0,5463.0,-373.0,-28.0,-134.0,-159.0,22.0,-363.0,0.719329,0.12462,0.683319,11086.0,1904.0,10652.0,-67.0,-177.0,19.0
2871.0,2787.0,2843.0,3071.0,3030.0,0.91626,0.050659,-0.395447,-0.039368,-3.0,-8.0,0.0,5554.0,975.0,5428.0,-349.0,-40.0,-160.0,-123.0,9.0,-365.0,0.720675,0.12397,0.682137,11340.0,1840.0,10610.0,-65.0,-177.0,19.0
2883.0,2786.0,2832.0,3103.0,2995.0,0.915588,0.049866,-0.397095,-0.039429,-3.0,-7.0,1.0,5584.0,958.0,5329.0,-340.0,-46.0,-238.0,-59.0,6.0,-413.0,0.723218,0.122627,0.679686,11230.0,1858.0,10350.0,-61.0,-158.0,24.0
2879.0,2790.0,2847.0,3099.0,3015.0,0.915222,0.0495,-0.397827,-0.03949,-3.0,-7.0,1.0,5572.0,951.0,5261.0,-361.0,-48.0,-297.0,-29.0,10.0,-468.0,0.724291,0.122026,0.678474,11048.0,1832.0,10066.0,-56.0,-151.0,26.0
2879.0,2788.0,2850.0,3071.0,3019.0,0.914612,0.04895,-0.399414,-0.039429,-2.0,-7.0,1.0,5553.0,962.0,5122.0,-400.0,-29.0,-416.0,33.0,39.0,-575.0,0.726758,0.121038,0.676142,11138.0,2022.0,9876.0,-37.0,-153.0,34.0
2879.0,2786.0,2839.0,3101.0,3023.0,0.914246,0.048706,-0.400208,-0.039429,-2.0,-7.0,1.0,5571.0,984.0,5063.0,-392.0,-4.0,-465.0,76.0,66.0,-599.0,0.727935,0.120618,0.674861,11256.0,2116.0,9786.0,-30.0,-143.0,36.0
2874.0,2785.0,2839.0,3088.0,3019.0,0.913635,0.048462,-0.401672,-0.039246,-2.0,-5.0,1.0,5636.0,1067.0,4977.0,-345.0,83.0,-532.0,162.0,150.0,-599.0,0.73016,0.120081,0.67258,11592.0,2448.0,9900.0,-25.0,-112.0,38.0
2864.0,2783.0,2845.0,3099.0,3007.0,0.913391,0.04834,-0.402283,-0.039185,-1.0,-5.0,1.0,5721.0,1080.0,4999.0,-268.0,98.0,-503.0,194.0,155.0,-522.0,0.731095,0.119833,0.671651,11946.0,2146.0,10114.0,-19.0,-102.0,45.0
2879.0,2791.0,2864.0,3095.0,3015.0,0.912964,0.04834,-0.403381,-0.038513,2.0,-3.0,3.0,5869.0,1088.0,5022.0,-134.0,110.0,-466.0,258.0,150.0,-397.0,0.732822,0.119336,0.669933,12072.0,2312.0,10016.0,49.0,-51.0,77.0
2876.0,2799.0,2851.0,3107.0,3007.0,0.912781,0.048645,-0.403748,-0.038025,3.0,-2.0,3.0,5915.0,1113.0,5036.0,-92.0,133.0,-446.0,272.0,167.0,-350.0,0.733367,0.119509,0.669236,12092.0,2370.0,10186.0,90.0,-31.0,70.0
2877.0,2794.0,2855.0,3095.0,3018.0,0.912415,0.049866,-0.404419,-0.037231,5.0,-4.0,0.0,6076.0,1204.0,5219.0,60.0,211.0,-251.0,232.0,218.0,-98.0,0.734282,0.121111,0.667845,13046.0,2678.0,11392.0,128.0,-70.0,13.0
2883.0,2790.0,2857.0,3103.0,2999.0,0.912231,0.05072,-0.404785,-0.037109,6.0,-3.0,-3.0,6076.0,1228.0,5299.0,56.0,223.0,-166.0,166.0,225.0,-42.0,0.734751,0.12258,0.66712,11634.0,2568.0,10790.0,142.0,-59.0,-46.0
2879.0,2787.0,2864.0,3101.0,3019.0,0.91095,0.053711,-0.407166,-0.038147,10.0,-23.0,-12.0,5662.0,1306.0,5290.0,-381.0,249.0,-138.0,-144.0,299.0,-340.0,0.737717,0.12892,0.662616,10646.0,2636.0,10452.0,240.0,-518.0,-253.0
2867.0,2801.0,2875.0,3127.0,3007.0,0.909119,0.05603,-0.410767,-0.039673,14.0,-40.0,-20.0,5229.0,1164.0,5025.0,-852.0,62.0,-350.0,-297.0,186.0,-853.0,0.742425,0.134469,0.656202,7596.0,1352.0,8344.0,341.0,-914.0,-446.0
2881.0,2799.0,2875.0,3131.0,3027.0,0.901611,0.063293,-0.425598,-0.043579,31.0,-88.0,-27.0,4860.0,995.0,4842.0,-1381.0,-243.0,-316.0,-637.0,-32.0,-1287.0,0.761932,0.151227,0.629662,8088.0,1358.0,9176.0,717.0,-1994.0,-611.0
2895.0,2815.0,2881.0,3119.0,3031.0,0.896179,0.068115,-0.436157,-0.044556,43.0,-103.0,-18.0,4820.0,1006.0,4947.0,-1534.0,-312.0,-52.0,-909.0,-89.0,-1271.0,0.77568,0.160953,0.61025,10118.0,2696.0,11028.0,994.0,-2359.0,-400.0
2899.0,2813.0,2885.0,3139.0,3045.0,0.884705,0.078186,-0.457581,-0.041992,46.0,-91.0,3.0,6790.0,1653.0,5862.0,211.0,204.0,1200.0,-857.0,50.0,888.0,0.803081,0.176773,0.568973,21422.0,4652.0,14462.0,1064.0,-2065.0,69.0
2901.0,2814.0,2883.0,3147.0,3039.0,0.880371,0.082397,-0.465454,-0.038818,49.0,-61.0,10.0,7820.0,1762.0,6057.0,1158.0,277.0,1525.0,-609.0,-61.0,1835.0,0.813148,0.181217,0.553123,20970.0,3986.0,12428.0,1129.0,-1388.0,250.0
2911.0,2821.0,2896.0,3134.0,3039.0,0.875549,0.095032,-0.472656,-0.03009,75.0,-15.0,3.0,7670.0,1673.0,5617.0,936.0,76.0,1233.0,-514.0,-229.0,1443.0,0.821949,0.194855,0.535057,11022.0,2614.0,9424.0,1734.0,-331.0,74.0
2919.0,2823.0,2901.0,3151.0,3047.0,0.874146,0.104004,-0.473694,-0.025208,89.0,-12.0,-1.0,6870.0,1476.0,5253.0,128.0,-209.0,914.0,-679.0,-366.0,546.0,0.822911,0.20571,0.529563,9390.0,1786.0,8390.0,2046.0,-254.0,-7.0
2919.0,2823.0,2906.0,3147.0,3047.0,0.8703,0.122864,-0.476807,-0.011963,95.0,-22.0,23.0,5805.0,1668.0,5737.0,-969.0,-177.0,1517.0,-1774.0,-345.0,-59.0,0.82699,0.225265,0.515126,8106.0,6078.0,11908.0,2182.0,-484.0,536.0
2925.0,2819.0,2885.0,3147.0,3056.0,0.868469,0.129944,-0.478394,-0.005066,68.0,-20.0,32.0,5695.0,2391.0,4947.0,-1101.0,502.0,781.0,-1304.0,459.0,-400.0,0.829624,0.230551,0.508519,13196.0,9406.0,3392.0,1568.0,-439.0,740.0
2932.0,2815.0,2895.0,3127.0,3055.0,0.865173,0.133545,-0.483337,0.002197,4.0,6.0,16.0,7640.0,2580.0,3658.0,783.0,704.0,-414.0,669.0,677.0,610.0,0.836928,0.228955,0.49708,18732.0,3482.0,2988.0,92.0,143.0,383.0
2929.0,2819.0,2909.0,3143.0,3055.0,0.865479,0.133118,-0.482849,0.00354,1.0,22.0,3.0,7869.0,2062.0,3334.0,1014.0,202.0,-747.0,1137.0,245.0,522.0,0.836734,0.227002,0.498202,16260.0,652.0,5284.0,37.0,511.0,84.0
2931.0,2832.0,2895.0,3135.0,3055.0,0.868469,0.136169,-0.476562,0.006897,30.0,35.0,-4.0,6734.0,872.0,2789.0,-62.0,-1011.0,-1377.0,1246.0,-631.0,-984.0,0.829638,0.229944,0.508632,8328.0,-1040.0,4744.0,692.0,820.0,-81.0
2931.0,2823.0,2898.0,3151.0,3055.0,0.869385,0.139465,-0.473938,0.010193,38.0,19.0,6.0,5690.0,862.0,2677.0,-1084.0,-1045.0,-1516.0,804.0,-497.0,-1915.0,0.826912,0.232836,0.511866,5284.0,2472.0,4804.0,885.0,439.0,159.0
2928.0,2813.0,2896.0,3153.0,3055.0,0.867676,0.144409,-0.475342,0.016602,23.0,-8.0,18.0,5935.0,1427.0,3035.0,-861.0,-496.0,-1112.0,522.0,-85.0,-1393.0,0.82968,0.234818,0.506333,15112.0,4078.0,7226.0,533.0,-177.0,420.0
2929.0,2820.0,2896.0,3166.0,3047.0,0.867065,0.145447,-0.476074,0.019531,17.0,1.0,15.0,6389.0,1512.0,3159.0,-420.0,-401.0,-972.0,636.0,-76.0,-933.0,0.831257,0.233627,0.504382,15190.0,3302.0,7028.0,400.0,38.0,366.0
2933.0,2823.0,2918.0,3155.0,3051.0,0.867126,0.147827,-0.474976,0.023926,17.0,13.0,4.0,6873.0,1649.0,3248.0,67.0,-264.0,-889.0,810.0,-10.0,-454.0,0.830802,0.233641,0.505026,16450.0,4906.0,6844.0,394.0,304.0,92.0
2919.0,2827.0,2895.0,3143.0,3051.0,0.867798,0.148743,-0.47345,0.024475,1.0,22.0,-2.0,7361.0,2015.0,3283.0,569.0,90.0,-873.0,1007.0,275.0,49.0,0.828998,0.234982,0.507393,17606.0,5884.0,7472.0,28.0,518.0,-42.0
2931.0,2813.0,2895.0,3154.0,3047.0,0.872375,0.149475,-0.464783,0.024597,-1.0,39.0,-5.0,6375.0,1728.0,3252.0,-328.0,-221.0,-1034.0,685.0,113.0,-862.0,0.818283,0.237932,0.523278,7158.0,1172.0,6264.0,-16.0,901.0,-106.0
2927.0,2821.0,2891.0,3150.0,3055.0,0.873779,0.149353,-0.462036,0.025513,3.0,17.0,4.0,5635.0,1590.0,3235.0,-1041.0,-355.0,-1093.0,343.0,69.0,-1510.0,0.815056,0.237428,0.528357,7488.0,3020.0,6580.0,74.0,409.0,107.0
2938.0,2828.0,2893.0,3155.0,3055.0,0.873779,0.148071,-0.462341,0.027649,-6.0,-11.0,16.0,5199.0,1842.0,3465.0,-1486.0,-68.0,-865.0,-143.0,312.0,-1685.0,0.816157,0.233197,0.52857,9640.0,3754.0,7382.0,-119.0,-241.0,382.0
2928.0,2819.0,2903.0,3125.0,3055.0,0.872925,0.146423,-0.464417,0.029175,-6.0,-21.0,22.0,5134.0,1671.0,3508.0,-1578.0,-201.0,-798.0,-216.0,167.0,-1758.0,0.819345,0.228535,0.525726,9976.0,2044.0,7172.0,-118.0,-461.0,504.0
2940.0,2819.0,2895.0,3147.0,3055.0,0.868958,0.144043,-0.472168,0.033875,9.0,-41.0,24.0,5275.0,1178.0,3476.0,-1527.0,-610.0,-722.0,-138.0,-261.0,-1771.0,0.830347,0.218346,0.512544,11288.0,1368.0,6944.0,219.0,-927.0,551.0
2931.0,2833.0,2903.0,3153.0,3063.0,0.865906,0.144287,-0.4776,0.036255,15.0,-50.0,19.0,5515.0,1146.0,3508.0,-1346.0,-617.0,-605.0,-110.0,-316.0,-1564.0,0.837576,0.215247,0.502187,12858.0,2294.0,7296.0,366.0,-1137.0,439.0
2933.0,2829.0,2897.0,3157.0,3055.0,0.85907,0.148071,-0.488464,0.037842,19.0,-46.0,-8.0,6650.0,1388.0,3750.0,-316.0,-393.0,-173.0,61.0,-299.0,-437.0,0.850457,0.217438,0.47891,16874.0,4318.0,8278.0,457.0,-1050.0,-168.0
2927.0,2827.0,2896.0,3151.0,3055.0,0.856567,0.151001,-0.492065,0.035828,10.0,-35.0,-25.0,6984.0,1682.0,3958.0,-10.0,-148.0,107.0,-63.0,-171.0,8.0,0.853794,0.223426,0.470062,15200.0,5048.0,9254.0,251.0,-791.0,-552.0
2907.0,2835.0,2897.0,3147.0,3051.0,0.854553,0.153015,-0.495544,0.026733,-25.0,-25.0,-31.0,6633.0,1777.0,4248.0,-372.0,-148.0,463.0,-547.0,-234.0,-138.0,0.855119,0.235024,0.461998,13348.0,2596.0,8760.0,-555.0,-553.0,-705.0
2896.0,2815.0,2899.0,3139.0,3039.0,0.853943,0.151733,-0.497192,0.022522,-23.0,-18.0,-23.0,6731.0,1411.0,4044.0,-281.0,-528.0,279.0,-276.0,-550.0,-237.0,0.855982,0.236748,0.459502,13742.0,308.0,6494.0,-505.0,-402.0,-519.0
2887.0,2798.0,2864.0,3117.0,3019.0,0.855896,0.147888,-0.495117,0.02002,-37.0,29.0,10.0,7098.0,2751.0,4198.0,106.0,839.0,380.0,-417.0,685.0,463.0,0.853459,0.23333,0.465947,17620.0,10918.0,9538.0,-843.0,684.0,249.0
2879.0,2781.0,2867.0,3101.0,3025.0,0.860046,0.141174,-0.489929,0.018127,-72.0,61.0,16.0,7637.0,3135.0,4150.0,691.0,1291.0,217.0,-41.0,1108.0,980.0,0.847842,0.225071,0.480048,17916.0,7936.0,7484.0,-1637.0,1418.0,385.0
2879.0,2770.0,2843.0,3071.0,3007.0,0.872681,0.11908,-0.473328,0.013184,-103.0,89.0,21.0,6867.0,2881.0,4183.0,73.0,1280.0,-105.0,-47.0,1259.0,255.0,0.829268,0.195357,0.523526,9816.0,4564.0,8740.0,-2347.0,2057.0,499.0
2875.0,2775.0,2835.0,3063.0,2999.0,0.878845,0.106567,-0.464905,0.01001,-110.0,69.0,18.0,6249.0,2168.0,4316.0,-462.0,709.0,-148.0,-224.0,759.0,-332.0,0.819292,0.178005,0.544976,9724.0,-1274.0,9924.0,-2503.0,1581.0,435.0
2865.0,2775.0,2843.0,3091.0,3003.0,0.884399,0.082458,-0.45929,0.008362,-59.0,14.0,31.0,6522.0,95.0,4435.0,-144.0,-1036.0,-189.0,163.0,-983.0,-367.0,0.81377,0.138171,0.564486,15084.0,-5178.0,8464.0,-1331.0,321.0,716.0
2869.0,2769.0,2847.0,3071.0,3003.0,0.885437,0.076782,-0.458252,0.011292,-13.0,18.0,29.0,6687.0,-287.0,4340.0,24.0,-1316.0,-314.0,387.0,-1255.0,-324.0,0.81324,0.125623,0.568236,13918.0,-1514.0,8388.0,-289.0,431.0,677.0
2867.0,2768.0,2830.0,3071.0,3007.0,0.886719,0.076843,-0.455505,0.016663,16.0,8.0,9.0,6498.0,456.0,4551.0,-140.0,-536.0,-144.0,87.0,-501.0,-260.0,0.810371,0.121097,0.573158,12378.0,3104.0,9680.0,371.0,191.0,222.0
2876.0,2775.0,2828.0,3071.0,3007.0,0.886902,0.078857,-0.454773,0.018127,18.0,4.0,3.0,6454.0,866.0,4626.0,-177.0,-144.0,-75.0,-28.0,-123.0,-204.0,0.809537,0.12339,0.573887,12808.0,4414.0,9772.0,434.0,113.0,90.0
2875.0,2771.0,2827.0,3087.0,3003.0,0.887695,0.082947,-0.452515,0.018494,3.0,12.0,-5.0,6859.0,1850.0,4913.0,252.0,780.0,188.0,-86.0,727.0,413.0,0.806458,0.130526,0.576695,15356.0,6210.0,10586.0,84.0,294.0,-108.0
2863.0,2763.0,2827.0,3071.0,2993.0,0.888672,0.083191,-0.4505,0.017151,-12.0,20.0,-8.0,7087.0,2107.0,4957.0,504.0,1022.0,204.0,28.0,951.0,658.0,0.803548,0.132406,0.58016,15408.0,5312.0,9944.0,-259.0,461.0,-170.0
2867.0,2774.0,2833.0,3071.0,2999.0,0.891846,0.079895,-0.444946,0.013062,-27.0,29.0,-9.0,6777.0,1853.0,4412.0,258.0,780.0,-431.0,423.0,823.0,52.0,0.795734,0.130885,0.591199,11412.0,2274.0,6668.0,-608.0,666.0,-187.0
2875.0,2769.0,2835.0,3071.0,3007.0,0.893311,0.077393,-0.442505,0.010925,-27.0,22.0,-8.0,6430.0,1569.0,4129.0,-60.0,515.0,-756.0,514.0,623.0,-432.0,0.79228,0.128602,0.596323,10952.0,1310.0,6752.0,-616.0,524.0,-172.0
2874.0,2768.0,2833.0,3089.0,3011.0,0.895081,0.072693,-0.439758,0.007996,-18.0,10.0,-4.0,5966.0,861.0,3844.0,-492.0,-147.0,-1092.0,568.0,28.0,-1063.0,0.788401,0.1231,0.602562,10590.0,-102.0,7214.0,-399.0,234.0,-73.0
2879.0,2778.0,2832.0,3071.0,2999.0,0.895386,0.071045,-0.439453,0.007385,-12.0,2.0,-1.0,5821.0,675.0,3864.0,-634.0,-314.0,-1080.0,483.0,-135.0,-1189.0,0.78801,0.120734,0.603604,10940.0,460.0,8032.0,-266.0,54.0,-18.0
2879.0,2775.0,2835.0,3071.0,2999.0,0.894897,0.068726,-0.440918,0.007019,-8.0,-10.0,4.0,6022.0,698.0,4303.0,-450.0,-258.0,-626.0,237.0,-153.0,-762.0,0.790118,0.116815,0.601759,13232.0,1832.0,10228.0,-173.0,-224.0,92.0
2875.0,2781.0,2847.0,3071.0,3007.0,0.894409,0.067383,-0.442017,0.007141,-10.0,-10.0,7.0,6203.0,790.0,4538.0,-282.0,-145.0,-378.0,137.0,-82.0,-466.0,0.79165,0.114223,0.6001,13408.0,2220.0,10444.0,-225.0,-217.0,164.0
2877.0,2791.0,2844.0,3091.0,3019.0,0.893677,0.063049,-0.444153,0.007507,-21.0,-11.0,13.0,6520.0,1161.0,5036.0,8.0,292.0,141.0,-127.0,272.0,121.0,0.794805,0.106023,0.597468,14194.0,3592.0,11762.0,-481.0,-247.0,303.0
2871.0,2783.0,2847.0,3071.0,3007.0,0.893433,0.059692,-0.445129,0.007385,-29.0,-9.0,14.0,6552.0,1275.0,5102.0,28.0,455.0,214.0,-183.0,426.0,195.0,0.796268,0.100087,0.596573,12868.0,2970.0,10094.0,-654.0,-195.0,328.0
2874.0,2787.0,2864.0,3095.0,3007.0,0.892761,0.052063,-0.44751,0.006042,-31.0,-19.0,7.0,5891.0,1119.0,4821.0,-659.0,401.0,-45.0,-382.0,426.0,-518.0,0.799668,0.087551,0.594084,9626.0,1504.0,9554.0,-698.0,-417.0,171.0
2882.0,2783.0,2861.0,3107.0,3007.0,0.891541,0.049133,-0.450256,0.004517,-24.0,-31.0,-3.0,5779.0,787.0,4768.0,-801.0,102.0,-62.0,-431.0,136.0,-671.0,0.803287,0.083541,0.58972,10834.0,-922.0,8958.0,-546.0,-709.0,-54.0
2881.0,2811.0,2898.0,3111.0,3015.0,0.887268,0.049072,-0.458618,0.000977,12.0,-42.0,-25.0,6625.0,-245.0,4705.0,-42.0,-951.0,-1.0,20.0,-944.0,-116.0,0.81393,0.086185,0.574507,19418.0,-4058.0,10104.0,284.0,-941.0,-571.0
2883.0,2804.0,2887.0,3123.0,3022.0,0.884827,0.052856,-0.462952,0.0,39.0,-32.0,-32.0,7566.0,-955.0,4752.0,854.0,-1721.0,116.0,477.0,-1764.0,604.0,0.819264,0.093538,0.5658,20030.0,-6434.0,9506.0,895.0,-725.0,-725.0
2887.0,2826.0,2907.0,3135.0,3035.0,0.882507,0.070129,-0.464966,0.005615,94.0,12.0,-14.0,8367.0,-384.0,4762.0,1637.0,-1355.0,192.0,873.0,-1456.0,1291.0,0.821459,0.118558,0.557739,16664.0,6122.0,10506.0,2166.0,276.0,-305.0
2899.0,2819.0,2896.0,3155.0,3039.0,0.882751,0.081177,-0.462646,0.008911,82.0,20.0,-12.0,8032.0,917.0,4835.0,1328.0,-189.0,258.0,566.0,-304.0,1205.0,0.81825,0.135072,0.558698,13522.0,9490.0,9996.0,1885.0,474.0,-260.0
2910.0,2819.0,2893.0,3167.0,3047.0,0.883118,0.093994,-0.459412,0.013367,39.0,7.0,5.0,7349.0,1737.0,4842.0,681.0,477.0,252.0,136.0,380.0,768.0,0.813942,0.153734,0.560182,10878.0,3650.0,9630.0,915.0,174.0,136.0
2901.0,2819.0,2881.0,3151.0,3047.0,0.882996,0.098755,-0.458496,0.017578,54.0,2.0,15.0,6440.0,1518.0,4903.0,-221.0,221.0,315.0,-408.0,169.0,31.0,0.813172,0.158281,0.560019,6744.0,1376.0,10624.0,1257.0,51.0,351.0
2923.0,2830.0,2899.0,3151.0,3055.0,0.881104,0.112244,-0.458313,0.031982,90.0,-21.0,37.0,4347.0,950.0,6299.0,-2328.0,-430.0,1754.0,-2680.0,-708.0,-996.0,0.814822,0.168481,0.554717,3650.0,1094.0,18318.0,2067.0,-475.0,864.0
2935.0,2815.0,2922.0,3135.0,3061.0,0.880249,0.117554,-0.457947,0.040161,62.0,-11.0,40.0,4793.0,1597.0,5160.0,-1888.0,202.0,630.0,-1627.0,111.0,-1157.0,0.815657,0.17017,0.552917,17012.0,8514.0,964.0,1436.0,-239.0,928.0
2923.0,2829.0,2883.0,3139.0,3043.0,0.879883,0.122375,-0.456665,0.04718,9.0,54.0,5.0,7765.0,1975.0,4415.0,1087.0,563.0,-114.0,609.0,541.0,920.0,0.815171,0.172261,0.552901,17798.0,3800.0,4302.0,215.0,1239.0,116.0
2931.0,2823.0,2903.0,3159.0,3058.0,0.882812,0.122559,-0.450867,0.047974,-1.0,66.0,-4.0,7627.0,1765.0,4000.0,1009.0,346.0,-615.0,1008.0,467.0,528.0,0.807821,0.173133,0.563358,13578.0,1620.0,6808.0,-14.0,1525.0,-73.0
2917.0,2823.0,2896.0,3147.0,3047.0,0.889282,0.121216,-0.43811,0.050476,0.0,45.0,8.0,5667.0,1144.0,3449.0,-816.0,-259.0,-1357.0,592.0,115.0,-1486.0,0.791444,0.171362,0.586737,5414.0,402.0,6612.0,4.0,1036.0,201.0
2923.0,2827.0,2914.0,3158.0,3047.0,0.890747,0.120117,-0.435059,0.052856,1.0,20.0,19.0,4977.0,998.0,3384.0,-1476.0,-378.0,-1469.0,286.0,32.0,-2096.0,0.787752,0.167997,0.59252,6632.0,1468.0,6350.0,45.0,465.0,436.0
2917.0,2835.0,2896.0,3155.0,3051.0,0.890869,0.117676,-0.434814,0.057739,0.0,-1.0,19.0,5109.0,887.0,3767.0,-1348.0,-419.0,-1099.0,93.0,-119.0,-1782.0,0.788315,0.159456,0.59407,11130.0,1342.0,8794.0,8.0,-13.0,450.0
2911.0,2827.0,2902.0,3167.0,3063.0,0.890625,0.116821,-0.435364,0.059387,1.0,0.0,11.0,5752.0,707.0,3905.0,-714.0,-574.0,-957.0,409.0,-308.0,-1221.0,0.789367,0.156378,0.593551,15840.0,-92.0,8500.0,27.0,9.0,252.0
2928.0,2832.0,2896.0,3139.0,3051.0,0.891418,0.116455,-0.433594,0.06134,3.0,15.0,1.0,6127.0,839.0,4077.0,-322.0,-426.0,-812.0,507.0,-202.0,-803.0,0.787314,0.154427,0.596824,11694.0,3064.0,8704.0,69.0,362.0,36.0
2918.0,2819.0,2903.0,3154.0,3069.0,0.892151,0.116516,-0.432068,0.061279,-3.0,13.0,-3.0,6083.0,1078.0,4156.0,-349.0,-191.0,-754.0,394.0,9.0,-755.0,0.785219,0.154946,0.59943,12078.0,3396.0,8704.0,-55.0,305.0,-61.0
2923.0,2839.0,2895.0,3151.0,3057.0,0.893616,0.115967,-0.429565,0.058533,-11.0,9.0,-14.0,5854.0,1125.0,4128.0,-546.0,-160.0,-819.0,309.0,53.0,-946.0,0.781309,0.156972,0.604,10284.0,1906.0,7978.0,-230.0,209.0,-309.0
2928.0,2831.0,2911.0,3147.0,3057.0,0.894043,0.115417,-0.429138,0.056396,-12.0,-1.0,-15.0,5537.0,988.0,4066.0,-855.0,-306.0,-890.0,197.0,-70.0,-1254.0,0.780354,0.157973,0.605013,9238.0,992.0,7820.0,-267.0,-9.0,-335.0
2917.0,2823.0,2897.0,3135.0,3063.0,0.893127,0.114502,-0.431763,0.052612,-6.0,-20.0,-13.0,5295.0,666.0,4039.0,-1121.0,-637.0,-883.0,96.0,-390.0,-1510.0,0.783287,0.159098,0.600915,10082.0,670.0,7806.0,-124.0,-455.0,-280.0
2923.0,2831.0,2911.0,3159.0,3043.0,0.891907,0.114868,-0.434448,0.050903,0.0,-28.0,-14.0,5255.0,532.0,4021.0,-1189.0,-784.0,-862.0,73.0,-533.0,-1575.0,0.786669,0.160674,0.596149,10256.0,240.0,7970.0,1.0,-638.0,-311.0
2927.0,2823.0,2896.0,3159.0,3057.0,0.887512,0.118164,-0.442749,0.047485,12.0,-49.0,-19.0,5265.0,441.0,3920.0,-1264.0,-932.0,-830.0,56.0,-666.0,-1645.0,0.797112,0.167696,0.579943,11120.0,654.0,7740.0,287.0,-1104.0,-427.0
2937.0,2821.0,2895.0,3135.0,3053.0,0.88446,0.121277,-0.448242,0.04541,20.0,-56.0,-24.0,5345.0,414.0,3925.0,-1240.0,-1009.0,-733.0,27.0,-752.0,-1589.0,0.803919,0.17382,0.568703,10964.0,744.0,7862.0,461.0,-1277.0,-543.0
2915.0,2831.0,2895.0,3142.0,3055.0,0.877075,0.131531,-0.460327,0.038391,21.0,-67.0,-45.0,5523.0,1417.0,4232.0,-1174.0,-183.0,-204.0,-475.0,-58.0,-1106.0,0.817582,0.19538,0.541533,12646.0,6940.0,10570.0,482.0,-1515.0,-1028.0
2928.0,2821.0,2895.0,3133.0,3039.0,0.874084,0.136169,-0.465149,0.031921,2.0,-55.0,-53.0,5855.0,1938.0,4593.0,-877.0,231.0,250.0,-738.0,217.0,-540.0,0.821852,0.208351,0.530137,14206.0,6682.0,11072.0,64.0,-1241.0,-1212.0
2890.0,2807.0,2885.0,3135.0,3023.0,0.872437,0.139099,-0.468079,0.019714,-22.0,7.0,-35.0,7250.0,2550.0,4579.0,514.0,712.0,293.0,-66.0,558.0,735.0,0.822222,0.224255,0.523088,15896.0,8244.0,8628.0,-493.0,171.0,-785.0
2879.0,2801.0,2875.0,3123.0,3031.0,0.874817,0.137085,-0.464355,0.015381,-47.0,42.0,-16.0,7330.0,3280.0,4627.0,639.0,1432.0,276.0,-80.0,1243.0,991.0,0.816669,0.225564,0.531123,14916.0,10730.0,10378.0,-1066.0,964.0,-344.0
2867.0,2783.0,2847.0,3088.0,3011.0,0.885742,0.121643,-0.447815,0.00824,-98.0,94.0,4.0,6705.0,3346.0,3787.0,189.0,1641.0,-876.0,603.0,1769.0,-6.0,0.795302,0.208109,0.569272,6794.0,5076.0,5468.0,-2222.0,2167.0,111.0
2866.0,2773.0,2831.0,3095.0,3003.0,0.892639,0.110474,-0.43689,0.004578,-107.0,98.0,8.0,5731.0,2867.0,3691.0,-666.0,1284.0,-1172.0,366.0,1547.0,-967.0,0.780981,0.193226,0.593749,6688.0,2564.0,7502.0,-2449.0,2263.0,202.0
2871.0,2770.0,2835.0,3071.0,3007.0,0.903137,0.082031,-0.421448,-0.002502,-112.0,40.0,21.0,5769.0,909.0,4630.0,-463.0,-322.0,-541.0,134.0,-204.0,-742.0,0.76084,0.15028,0.631316,14942.0,-8250.0,11154.0,-2565.0,919.0,490.0
2864.0,2771.0,2823.0,3071.0,2999.0,0.906494,0.063477,-0.417419,0.001343,-9.0,30.0,27.0,6350.0,-964.0,4555.0,149.0,-1897.0,-716.0,743.0,-1806.0,-564.0,0.756947,0.113961,0.643465,13338.0,-3224.0,9636.0,-200.0,697.0,620.0
2859.0,2767.0,2823.0,3059.0,2994.0,0.907898,0.063782,-0.414185,0.0047,23.0,28.0,13.0,6172.0,-612.0,4878.0,6.0,-1528.0,-436.0,425.0,-1463.0,-449.0,0.752674,0.111922,0.648684,11322.0,1512.0,11962.0,532.0,664.0,304.0
2871.0,2763.0,2813.0,3063.0,2999.0,0.909607,0.071655,-0.409119,0.008667,37.0,14.0,-3.0,5992.0,657.0,5673.0,-115.0,-352.0,307.0,-278.0,-385.0,71.0,0.745516,0.123265,0.654947,11510.0,6074.0,13886.0,870.0,337.0,-50.0
2865.0,2767.0,2837.0,3071.0,2991.0,0.910095,0.076172,-0.407166,0.00946,28.0,9.0,-5.0,6015.0,1519.0,6072.0,-68.0,446.0,691.0,-591.0,342.0,461.0,0.74256,0.130943,0.656777,12502.0,8300.0,14550.0,644.0,218.0,-94.0
2867.0,2768.0,2815.0,3071.0,3007.0,0.91095,0.079834,-0.404602,0.007141,-14.0,7.0,-9.0,6607.0,2562.0,6559.0,558.0,1417.0,1153.0,-583.0,1195.0,1370.0,0.738284,0.139671,0.659804,15580.0,5964.0,13400.0,-300.0,177.0,-185.0
2869.0,2769.0,2835.0,3063.0,3007.0,0.911804,0.078186,-0.403076,0.005188,-25.0,16.0,-7.0,6721.0,2405.0,6288.0,692.0,1271.0,858.0,-255.0,1092.0,1253.0,0.735864,0.138398,0.66283,13446.0,3362.0,10414.0,-572.0,381.0,-139.0
2866.0,2768.0,2832.0,3067.0,3007.0,0.913696,0.07251,-0.399902,0.002625,-23.0,12.0,0.0,6050.0,1506.0,5251.0,60.0,437.0,-234.0,184.0,460.0,-55.0,0.731159,0.130405,0.669668,9754.0,94.0,7634.0,-524.0,282.0,18.0
2879.0,2777.0,2831.0,3071.0,3014.0,0.914001,0.070312,-0.399536,0.002319,-14.0,3.0,2.0,5806.0,1087.0,4952.0,-179.0,49.0,-543.0,271.0,128.0,-488.0,0.730679,0.126678,0.670831,10450.0,-172.0,8522.0,-300.0,70.0,65.0
2867.0,2769.0,2839.0,3071.0,2993.0,0.913513,0.069092,-0.400818,0.002869,1.0,-9.0,1.0,5611.0,880.0,4917.0,-391.0,-135.0,-564.0,155.0,-41.0,-680.0,0.732701,0.123933,0.669086,11120.0,1864.0,10462.0,35.0,-192.0,43.0
2910.0,2775.0,2827.0,3071.0,2999.0,0.913025,0.069214,-0.401855,0.003052,1.0,-11.0,1.0,5713.0,906.0,5087.0,-301.0,-109.0,-379.0,80.0,-44.0,-487.0,0.734231,0.123935,0.667345,12268.0,2014.0,11256.0,43.0,-235.0,37.0
2874.0,2773.0,2846.0,3071.0,3007.0,0.912659,0.069153,-0.40271,0.003418,-1.0,3.0,0.0,6171.0,1049.0,5453.0,145.0,37.0,-2.0,97.0,29.0,109.0,0.735546,0.123473,0.666,13546.0,2636.0,11830.0,-15.0,77.0,21.0
2871.0,2769.0,2826.0,3071.0,2999.0,0.913208,0.069031,-0.40155,0.003174,-3.0,13.0,-3.0,6265.0,1107.0,5518.0,253.0,95.0,46.0,131.0,75.0,228.0,0.733836,0.12353,0.667951,12786.0,2506.0,11224.0,-64.0,313.0,-47.0
2875.0,2768.0,2833.0,3088.0,2997.0,0.915222,0.06842,-0.397095,0.002136,-5.0,20.0,-5.0,5933.0,982.0,5281.0,-23.0,-30.0,-250.0,167.0,3.0,-189.0,0.727152,0.123543,0.675271,10398.0,1724.0,9750.0,-103.0,478.0,-104.0
2877.0,2767.0,2834.0,3063.0,3007.0,0.916138,0.068054,-0.394958,0.001587,-6.0,17.0,-4.0,5683.0,998.0,5191.0,-247.0,-13.0,-368.0,97.0,46.0,-430.0,0.723889,0.123441,0.678687,9888.0,2172.0,9970.0,-129.0,394.0,-91.0
2870.0,2773.0,2829.0,3091.0,3003.0,0.91748,0.066467,-0.392212,0.000183,-10.0,7.0,-3.0,5389.0,915.0,5160.0,-506.0,-82.0,-439.0,-30.0,-1.0,-674.0,0.719718,0.121821,0.683522,10380.0,1294.0,10470.0,-224.0,169.0,-58.0
2867.0,2770.0,2832.0,3071.0,3011.0,0.917786,0.06543,-0.391602,-0.000305,-9.0,3.0,-1.0,5379.0,808.0,5208.0,-509.0,-177.0,-401.0,-55.0,-101.0,-661.0,0.718773,0.12034,0.684698,10756.0,986.0,10708.0,-188.0,81.0,-22.0
2871.0,2791.0,2833.0,3089.0,3005.0,0.917969,0.064087,-0.391357,-0.00061,-3.0,-2.0,0.0,5423.0,782.0,5377.0,-462.0,-185.0,-237.0,-141.0,-132.0,-516.0,0.71843,0.118137,0.685399,11056.0,1856.0,11372.0,-68.0,-25.0,16.0
2879.0,2775.0,2827.0,3071.0,2990.0,0.917969,0.063721,-0.391418,-0.000671,-4.0,-3.0,0.0,5457.0,881.0,5472.0,-429.0,-81.0,-142.0,-191.0,-41.0,-415.0,0.718534,0.117513,0.685398,11160.0,2398.0,11486.0,-76.0,-47.0,13.0
2868.0,2771.0,2833.0,3089.0,2995.0,0.917969,0.062744,-0.391541,-0.001343,-7.0,-1.0,-1.0,5581.0,968.0,5594.0,-306.0,15.0,-21.0,-197.0,33.0,-232.0,0.718675,0.116246,0.685428,11470.0,1806.0,11342.0,-140.0,-22.0,-14.0
2864.0,2765.0,2832.0,3095.0,3005.0,0.91803,0.062134,-0.391541,-0.001648,-6.0,-1.0,-1.0,5588.0,934.0,5571.0,-299.0,-11.0,-45.0,-174.0,9.0,-247.0,0.718687,0.115372,0.685617,11118.0,1702.0,10956.0,-116.0,-16.0,-8.0
2879.0,2783.0,2827.0,3071.0,2995.0,0.917908,0.061523,-0.391968,-0.002319,-3.0,-5.0,-2.0,5550.0,957.0,5546.0,-342.0,16.0,-66.0,-190.0,41.0,-289.0,0.719295,0.114764,0.685136,11106.0,1976.0,11102.0,-66.0,-95.0,-37.0
2867.0,2775.0,2827.0,3071.0,3013.0,0.917664,0.061279,-0.392456,-0.002686,-4.0,-6.0,-2.0,5575.0,953.0,5557.0,-322.0,14.0,-49.0,-188.0,36.0,-263.0,0.719956,0.114575,0.684337,11314.0,1874.0,11160.0,-75.0,-131.0,-28.0
2871.0,2786.0,2827.0,3071.0,2999.0,0.917114,0.060486,-0.393921,-0.003296,-5.0,-8.0,-1.0,5618.0,969.0,5555.0,-297.0,38.0,-34.0,-181.0,57.0,-233.0,0.722142,0.113541,0.682277,11480.0,1928.0,11098.0,-103.0,-173.0,-16.0
2867.0,2775.0,2832.0,3089.0,3007.0,0.916809,0.059937,-0.394653,-0.003662,-5.0,-8.0,-1.0,5694.0,897.0,5540.0,-230.0,-26.0,-40.0,-128.0,-9.0,-196.0,0.723204,0.112791,0.681209,11878.0,1208.0,10926.0,-111.0,-161.0,-10.0
2874.0,2779.0,2835.0,3087.0,3007.0,0.916382,0.058899,-0.395935,-0.003662,-2.0,-5.0,2.0,5783.0,798.0,5459.0,-158.0,-110.0,-107.0,-26.0,-89.0,-199.0,0.725224,0.110848,0.679535,11610.0,1560.0,10684.0,-44.0,-94.0,48.0
2875.0,2783.0,2834.0,3095.0,3005.0,0.916199,0.058594,-0.396423,-0.003479,-2.0,-4.0,2.0,5768.0,823.0,5410.0,-179.0,-79.0,-151.0,-9.0,-53.0,-241.0,0.725997,0.110125,0.678848,11380.0,1828.0,10546.0,-35.0,-86.0,48.0
2869.0,2779.0,2833.0,3095.0,2999.0,0.915771,0.057983,-0.3974,-0.003357,-3.0,-6.0,1.0,5662.0,869.0,5329.0,-297.0,-22.0,-219.0,-42.0,16.0,-366.0,0.727466,0.108867,0.67736,11020.0,1852.0,10464.0,-59.0,-121.0,45.0
2871.0,2779.0,2832.0,3089.0,3007.0,0.915527,0.057556,-0.398071,-0.003296,-4.0,-7.0,2.0,5643.0,890.0,5323.0,-324.0,5.0,-218.0,-62.0,44.0,-382.0,0.728511,0.108012,0.676428,11214.0,1934.0,10622.0,-77.0,-151.0,59.0
2870.0,2775.0,2835.0,3071.0,3007.0,0.914978,0.056396,-0.399536,-0.003296,-6.0,-6.0,2.0,5692.0,926.0,5342.0,-294.0,58.0,-182.0,-69.0,90.0,-331.0,0.730762,0.105837,0.674386,11664.0,1870.0,10708.0,-116.0,-137.0,56.0
2878.0,2775.0,2834.0,3071.0,2999.0,0.914734,0.055786,-0.400085,-0.003418,-5.0,-4.0,1.0,5752.0,894.0,5342.0,-240.0,35.0,-175.0,-36.0,64.0,-289.0,0.731562,0.104794,0.673569,11944.0,1536.0,10696.0,-113.0,-88.0,28.0
2877.0,2775.0,2839.0,3087.0,3003.0,0.914734,0.055115,-0.400208,-0.003601,-1.0,2.0,-2.0,5856.0,723.0,5294.0,-138.0,-126.0,-223.0,74.0,-96.0,-264.0,0.73177,0.103713,0.673547,11758.0,988.0,10344.0,0.0,59.0,-23.0
2871.0,2775.0,2837.0,3088.0,3011.0,0.914917,0.055237,-0.39978,-0.00354,2.0,4.0,-2.0,5838.0,693.0,5259.0,-151.0,-158.0,-264.0,96.0,-123.0,-304.0,0.73114,0.103905,0.67421,11514.0,1322.0,10350.0,55.0,100.0,-28.0
2879.0,2770.0,2831.0,3071.0,3003.0,0.915344,0.055847,-0.398743,-0.003418,1.0,4.0,-1.0,5768.0,770.0,5253.0,-208.0,-89.0,-282.0,67.0,-49.0,-351.0,0.729592,0.104965,0.675752,11336.0,1866.0,10540.0,37.0,110.0,-11.0
2865.0,2777.0,2833.0,3089.0,2999.0,0.915527,0.055969,-0.398254,-0.003418,-1.0,4.0,-1.0,5720.0,826.0,5251.0,-250.0,-35.0,-290.0,42.0,6.0,-382.0,0.728843,0.105205,0.676463,11158.0,1952.0,10484.0,-6.0,99.0,-1.0
2883.0,2782.0,2831.0,3088.0,3011.0,0.915894,0.055603,-0.397461,-0.003601,-3.0,2.0,0.0,5677.0,833.0,5288.0,-284.0,-24.0,-264.0,-1.0,16.0,-388.0,0.727663,0.104715,0.677807,11260.0,1574.0,10692.0,-58.0,65.0,6.0
2875.0,2771.0,2827.0,3087.0,2995.0,0.916077,0.055298,-0.397156,-0.003601,-2.0,2.0,0.0,5650.0,812.0,5303.0,-307.0,-41.0,-254.0,-23.0,0.0,-399.0,0.727252,0.104175,0.678419,11132.0,1508.0,10686.0,-43.0,52.0,6.0
2869.0,2779.0,2832.0,3089.0,3003.0,0.91626,0.055054,-0.396729,-0.003662,-1.0,0.0,0.0,5613.0,786.0,5359.0,-339.0,-64.0,-204.0,-81.0,-26.0,-391.0,0.72661,0.103793,0.679121,11190.0,1612.0,10936.0,-9.0,12.0,1.0
2864.0,2783.0,2835.0,3071.0,2999.0,0.916321,0.054993,-0.396667,-0.003662,-1.0,-1.0,-1.0,5616.0,792.0,5411.0,-335.0,-57.0,-153.0,-116.0,-24.0,-353.0,0.726547,0.103687,0.679288,11288.0,1626.0,11132.0,-3.0,0.0,-8.0
2871.0,2781.0,2829.0,3088.0,3007.0,0.916382,0.054993,-0.396484,-0.003723,0.0,0.0,0.0,5678.0,784.0,5491.0,-271.0,-65.0,-75.0,-128.0,-43.0,-254.0,0.726253,0.103741,0.679545,11596.0,1570.0,11166.0,9.0,10.0,2.0
2871.0,2775.0,2847.0,3087.0,3007.0,0.916443,0.055054,-0.396362,-0.003601,0.0,1.0,0.0,5698.0,785.0,5511.0,-250.0,-65.0,-57.0,-127.0,-46.0,-227.0,0.72609,0.103762,0.679747,11464.0,1572.0,11114.0,22.0,26.0,7.0
2878.0,2752.0,2839.0,3095.0,3003.0,0.916565,0.055359,-0.395935,-0.003357,1.0,1.0,0.0,5712.0,805.0,5505.0,-230.0,-48.0,-67.0,-107.0,-29.0,-217.0,0.725429,0.104138,0.680273,11480.0,1718.0,10946.0,45.0,32.0,12.0
2869.0,2775.0,2835.0,3088.0,2991.0,0.916626,0.055542,-0.395752,-0.003174,1.0,1.0,0.0,5710.0,830.0,5486.0,-230.0,-24.0,-88.0,-93.0,-3.0,-229.0,0.72516,0.104335,0.680509,11384.0,1818.0,10838.0,39.0,34.0,16.0
2875.0,2783.0,2839.0,3089.0,3003.0,0.916809,0.055664,-0.395447,-0.002991,-1.0,0.0,0.0,5659.0,882.0,5452.0,-278.0,26.0,-127.0,-99.0,52.0,-285.0,0.724765,0.104432,0.681071,11114.0,1872.0,10842.0,-8.0,18.0,18.0
2879.0,2775.0,2843.0,3094.0,3024.0,0.916809,0.055603,-0.395386,-0.002991,-2.0,-1.0,0.0,5635.0,874.0,5427.0,-301.0,19.0,-152.0,-97.0,48.0,-319.0,0.724654,0.10432,0.681126,11158.0,1664.0,10694.0,-26.0,-1.0,4.0
2867.0,2775.0,2835.0,3091.0,3011.0,0.916809,0.055298,-0.395447,-0.003174,-1.0,-1.0,-1.0,5664.0,795.0,5401.0,-273.0,-56.0,-178.0,-56.0,-24.0,-324.0,0.724747,0.103905,0.681113,11498.0,1292.0,10760.0,-18.0,-9.0,-8.0
2875.0,2785.0,2849.0,3091.0,2999.0,0.916809,0.055237,-0.395447,-0.003174,0.0,0.0,-1.0,5691.0,768.0,5408.0,-246.0,-82.0,-171.0,-41.0,-52.0,-303.0,0.724748,0.103793,0.68112,11542.0,1422.0,10904.0,4.0,5.0,-7.0
2871.0,2779.0,2839.0,3071.0,2999.0,0.916931,0.055359,-0.395081,-0.003113,0.0,2.0,-1.0,5711.0,745.0,5404.0,-221.0,-106.0,-179.0,-18.0,-76.0,-293.0,0.724179,0.10398,0.681619,11450.0,1440.0,10768.0,20.0,49.0,-1.0
2881.0,2779.0,2843.0,3091.0,3023.0,0.917053,0.05542,-0.394836,-0.002991,1.0,2.0,0.0,5707.0,754.0,5397.0,-222.0,-98.0,-190.0,-11.0,-67.0,-300.0,0.723841,0.104008,0.682028,11386.0,1628.0,10792.0,27.0,56.0,12.0
2867.0,2778.0,2835.0,3103.0,3006.0,0.917297,0.055603,-0.394226,-0.002686,0.0,2.0,0.0,5668.0,850.0,5396.0,-254.0,-3.0,-198.0,-31.0,29.0,-319.0,0.722946,0.104126,0.682936,11128.0,2004.0,10696.0,6.0,54.0,21.0
2879.0,2785.0,2833.0,3091.0,3011.0,0.917419,0.055603,-0.393982,-0.002686,-1.0,1.0,0.0,5624.0,877.0,5375.0,-295.0,23.0,-223.0,-43.0,59.0,-363.0,0.722595,0.104139,0.683352,11004.0,1854.0,10636.0,-8.0,34.0,8.0
2871.0,2768.0,2839.0,3071.0,2985.0,0.91748,0.055603,-0.39386,-0.002686,0.0,0.0,0.0,5641.0,853.0,5381.0,-277.0,0.0,-218.0,-33.0,35.0,-349.0,0.722419,0.104145,0.68356,11410.0,1644.0,10812.0,9.0,4.0,3.0
2871.0,2783.0,2832.0,3087.0,2999.0,0.91748,0.055725,-0.393799,-0.002625,0.0,0.0,0.0,5655.0,865.0,5396.0,-262.0,10.0,-204.0,-33.0,43.0,-327.0,0.722313,0.10432,0.683595,11374.0,1834.0,10864.0,17.0,4.0,3.0
2867.0,2779.0,2831.0,3071.0,3005.0,0.91748,0.055908,-0.393738,-0.002686,0.0,0.0,-1.0,5653.0,881.0,5399.0,-263.0,23.0,-201.0,-37.0,55.0,-324.0,0.722193,0.104704,0.683622,11350.0,1754.0,10774.0,5.0,4.0,-16.0
2881.0,2783.0,2843.0,3087.0,3015.0,0.91748,0.055969,-0.393677,-0.002808,0.0,0.0,-1.0,5667.0,856.0,5383.0,-248.0,-3.0,-217.0,-14.0,31.0,-327.0,0.722067,0.104912,0.683664,11444.0,1504.0,10694.0,8.0,6.0,-19.0
2871.0,2779.0,2835.0,3099.0,3023.0,0.917542,0.056152,-0.393677,-0.002747,1.0,0.0,-1.0,5640.0,805.0,5338.0,-275.0,-56.0,-263.0,2.0,-15.0,-384.0,0.722121,0.105207,0.683756,11110.0,1528.0,10542.0,29.0,5.0,-3.0
2875.0,2774.0,2841.0,3103.0,2999.0,0.91748,0.056335,-0.393677,-0.002686,1.0,-1.0,0.0,5619.0,805.0,5325.0,-296.0,-59.0,-275.0,-3.0,-16.0,-407.0,0.722079,0.105488,0.683623,11142.0,1618.0,10604.0,38.0,-6.0,0.0
2882.0,2782.0,2843.0,3071.0,3011.0,0.917419,0.056763,-0.393799,-0.002502,2.0,-1.0,-1.0,5624.0,831.0,5354.0,-292.0,-38.0,-244.0,-23.0,1.0,-381.0,0.722273,0.106121,0.683365,11336.0,1808.0,10846.0,49.0,-18.0,-3.0
2874.0,2783.0,2839.0,3099.0,3003.0,0.917419,0.057068,-0.393799,-0.002441,1.0,-1.0,-1.0,5642.0,857.0,5380.0,-274.0,-16.0,-217.0,-31.0,19.0,-347.0,0.722279,0.106633,0.68333,11392.0,1844.0,10892.0,38.0,-3.0,-10.0
2879.0,2773.0,2833.0,3099.0,3003.0,0.917419,0.057373,-0.393677,-0.002502,0.0,0.0,-1.0,5636.0,871.0,5412.0,-279.0,-7.0,-186.0,-57.0,26.0,-329.0,0.722046,0.107241,0.683392,11212.0,1704.0,10910.0,21.0,13.0,-17.0
2863.0,2781.0,2859.0,3071.0,3015.0,0.91748,0.057556,-0.393555,-0.002563,1.0,0.0,-1.0,5635.0,857.0,5416.0,-278.0,-24.0,-183.0,-58.0,9.0,-328.0,0.721862,0.107631,0.683579,11282.0,1650.0,10862.0,29.0,9.0,-18.0
2875.0,2775.0,2851.0,3071.0,3003.0,0.91748,0.058044,-0.393433,-0.002563,1.0,0.0,-2.0,5660.0,880.0,5446.0,-251.0,-9.0,-154.0,-61.0,19.0,-287.0,0.721636,0.108526,0.683619,11436.0,1868.0,10998.0,39.0,9.0,-23.0
2871.0,2770.0,2839.0,3071.0,3007.0,0.917542,0.058289,-0.393311,-0.002625,1.0,0.0,-2.0,5686.0,891.0,5452.0,-224.0,-2.0,-149.0,-47.0,24.0,-263.0,0.721452,0.109029,0.683799,11532.0,1832.0,10946.0,28.0,18.0,-23.0
2871.0,2783.0,2847.0,3071.0,3007.0,0.917664,0.058472,-0.392944,-0.002686,0.0,1.0,-1.0,5699.0,885.0,5456.0,-206.0,-11.0,-149.0,-34.0,15.0,-251.0,0.720867,0.109425,0.68429,11296.0,1732.0,10808.0,8.0,42.0,-8.0
2874.0,2775.0,2823.0,3091.0,3027.0,0.917786,0.058533,-0.392761,-0.002686,0.0,1.0,-1.0,5673.0,865.0,5441.0,-230.0,-32.0,-167.0,-37.0,-2.0,-283.0,0.720627,0.109551,0.68465,11194.0,1566.0,10806.0,7.0,37.0,-3.0
